capture duration,Gyroscope X (rad/s),Gyroscope Y (rad/s),Gyroscope Z (rad/s),Accelerometer X (m/s²),Accelerometer Y (m/s²),Accelerometer Z (m/s²),Magnetometer X (mT),Magnetometer Y (mT),Magnetometer Z (mT),time
0,-0.03490658,0.01745329,-0.03490658,0.25497291,0.22555296,-0.21574687,0.00000000,0.00000000,0.00200000,0
1,-0.03490658,0.00000000,-0.01745329,0.35303938,0.11767981,-0.26478004,0.00100000,-0.00200000,0.00000000,15
2,-0.03490658,-0.06981317,0.00000000,0.41187930,0.19613300,-0.19613265,-0.00100000,0.00000000,0.00100000,15
3,-0.03490658,-0.06981317,-0.01745329,0.31381282,0.13729310,0.09806633,0.00100000,-0.00100000,0.00100000,15
4,-0.03490658,-0.01745329,0.01745329,0.25497291,0.15690641,0.23536014,0.00000000,-0.00100000,0.00000000,15
5,-0.03490658,0.01745329,0.00000000,0.33342611,0.23535962,-0.04903316,0.00000000,-0.00100000,0.00000000,15
6,-0.03490658,-0.01745329,-0.01745329,0.38245937,0.19613300,-0.18632602,-0.00100000,0.00100000,0.00000000,15
7,-0.05235988,-0.03490658,-0.01745329,0.37265267,0.09806651,-0.07845306,0.00000000,-0.00200000,0.00100000,15
8,-0.03490658,0.00000000,0.01745329,0.32361946,0.15690641,0.00000000,-0.00100000,0.00000000,0.00100000,14
9,-0.05235988,0.01745329,-0.01745329,0.35303938,0.24516625,-0.11767960,0.00000000,-0.00100000,0.00100000,16
10,-0.05235988,-0.01745329,0.00000000,0.41187930,0.06864655,-0.34323310,0.00000000,-0.00100000,0.00000000,14
11,-0.03490658,-0.06981317,0.03490658,0.33342611,0.11767981,-0.12748622,-0.00100000,0.00000000,0.00000000,14
12,-0.01745329,-0.03490658,0.00000000,0.16671305,0.30400614,0.09806633,-0.00100000,-0.00200000,0.00000000,16
13,-0.03490658,0.03490658,-0.03490658,0.20593965,0.26477956,-0.03922653,-0.00100000,0.00000000,0.00100000,14
14,-0.03490658,0.01745329,-0.01745329,0.35303938,0.09806651,-0.27458572,0.00000000,0.00000000,0.00000000,15
15,-0.05235988,-0.05235988,0.00000000,0.37265267,0.13729310,-0.23535919,-0.00200000,0.00000000,0.00000000,15
16,-0.05235988,-0.05235988,-0.01745329,0.25497291,0.27458620,-0.01961327,0.00000000,-0.00100000,-0.00100000,15
17,-0.03490658,0.00000000,-0.01745329,0.19613300,0.25497291,0.02941990,0.00000000,0.00000000,0.00100000,15
18,-0.03490658,0.00000000,-0.03490658,0.32361946,0.19613300,-0.12748622,0.00000000,0.00000000,0.00000000,15
19,-0.03490658,0.00000000,-0.01745329,0.36284604,0.09806651,-0.07845306,-0.00100000,-0.00100000,0.00100000,15
20,-0.01745329,0.00000000,0.01745329,0.35303938,0.18632633,-0.06864643,-0.00100000,-0.00100000,0.00100000,14
21,-0.03490658,-0.01745329,0.00000000,0.37265267,0.26477956,-0.18632602,0.00000000,0.00100000,0.00000000,16
22,-0.03490658,-0.08726646,-0.01745329,0.30400614,0.26477956,-0.01961327,-0.00100000,0.00000000,0.00100000,15
23,-0.03490658,-0.06981317,0.00000000,0.06864655,0.19613300,0.28439331,-0.00100000,-0.00100000,0.00100000,15
24,-0.03490658,-0.10471976,0.00000000,-0.03922660,0.27458620,0.31381225,0.00000000,0.00100000,0.00000000,15
25,-0.06981317,-0.15707963,-0.05235988,-0.41187930,0.17651968,1.18660545,-0.00100000,-0.00100000,0.00000000,14
26,-0.08726646,0.13962633,-0.05235988,-1.18660461,0.01961330,1.41215801,0.00000000,0.00000000,0.00000000,16
27,0.13962633,0.64577178,-0.10471976,-1.16699135,0.62762565,1.18660545,0.00000000,0.00000000,0.00000000,15
28,0.08726646,0.82030477,-0.20943951,-0.45110592,0.09806651,-0.72569179,0.00000000,-0.00100000,0.00100000,14
29,0.24434609,0.41887903,-0.06981317,0.33342611,-0.11767981,-0.69627189,0.00100000,-0.00200000,0.00000000,16
30,0.08726646,0.15707963,-0.03490658,-0.17651968,-0.44129929,0.31381225,0.00100000,0.00000000,0.00000000,15
31,0.22689280,0.29670596,0.22689280,-0.19613300,0.19613300,0.61781883,0.00100000,-0.00200000,-0.00100000,14
32,-0.15707963,0.10471976,0.06981317,-0.21574630,0.15690641,0.03922653,0.00000000,-0.00200000,0.00000000,16
33,-0.20943951,-0.01745329,0.05235988,-0.10787315,0.50994582,0.19613265,0.00100000,-0.00100000,-0.00100000,14
34,-0.15707963,-0.05235988,-0.03490658,-0.47071924,-0.01961330,0.06864643,0.00100000,-0.00200000,0.00000000,15
35,0.05235988,-0.19198621,0.43633232,-0.62762565,-0.26477956,0.94143772,0.00100000,-0.00100000,0.00100000,16
36,0.17453291,0.10471976,0.34906582,-1.34351098,1.43177089,2.14765644,0.00000000,-0.00200000,-0.00100000,15
37,0.05235988,0.64577178,0.06981317,-1.18660461,1.19641137,1.52983760,0.00000000,-0.00100000,0.00100000,14
38,-0.06981317,0.50614547,-0.12217305,-0.10787315,0.50994582,-1.16699123,0.00100000,-0.00300000,0.00000000,16
39,-0.01745329,-0.17453291,0.00000000,0.68646550,-0.12748645,-1.79461765,0.00100000,-0.00200000,-0.00100000,15
40,-0.20943951,-0.47123889,-0.12217305,0.36284604,-0.30400614,0.21574592,0.00100000,-0.00100000,-0.00100000,14
41,0.00000000,-0.24434609,0.27925267,-0.25497291,-0.29419948,1.14737796,0.00100000,-0.00100000,-0.00100000,16
42,-0.24434609,-0.12217305,-0.08726646,-0.02941995,0.67665886,0.83356571,0.00200000,-0.00100000,-0.00100000,15
43,-0.27925267,-0.29670596,-0.20943951,0.25497291,0.40207266,-0.48052597,0.00200000,-0.00200000,-0.00100000,15
44,-0.13962633,-0.36651916,0.01745329,0.81395187,-0.52955913,-0.39226627,0.00100000,-0.00100000,-0.00100000,15
45,-0.01745329,-0.38397243,0.34906582,-0.28439283,-0.77472538,0.15690708,0.00000000,-0.00200000,-0.00200000,15
46,0.12217305,-0.40142574,0.55850534,-0.60801229,0.09806651,0.67665863,-0.00100000,-0.00200000,-0.00300000,16
47,0.08726646,-0.05235988,0.47123889,-0.85317859,0.63743219,1.00027847,0.00100000,-0.00100000,-0.00300000,14
48,0.06981317,0.22689280,0.05235988,-1.02969825,1.44157752,0.14709949,-0.00100000,-0.00100000,-0.00200000,15
49,-0.06981317,-0.15707963,-0.08726646,0.20593965,-0.23535962,-1.22583103,0.00000000,-0.00100000,-0.00300000,16
50,0.01745329,-0.45378561,0.19198621,-0.12748645,0.00000000,0.37265300,-0.00100000,-0.00200000,-0.00400000,14
51,-0.17453291,-0.31415927,0.08726646,-0.12748645,0.00000000,0.25497341,0.00000000,-0.00200000,-0.00300000,15
52,-0.26179938,-0.40142574,-0.06981317,0.45110592,0.05883990,-0.74530506,-0.00100000,-0.00100000,-0.00200000,16
53,-0.26179938,-0.47123889,0.05235988,0.33342611,0.12748645,-0.32361984,-0.00100000,-0.00100000,-0.00300000,14
54,-0.17453291,-0.38397243,-0.17453291,0.16671305,0.54917240,0.43149280,-0.00100000,0.00000000,-0.00400000,15
55,0.06981317,-0.15707963,0.00000000,0.31381282,-0.15690641,0.50994586,-0.00100000,0.00000000,-0.00300000,16
56,0.20943951,0.03490658,0.20943951,0.65704560,-0.69627218,0.14709949,-0.00200000,-0.00100000,-0.00400000,14
57,0.13962633,0.03490658,0.26179938,0.60801229,-0.38245937,0.02941990,-0.00200000,-0.00100000,-0.00400000,15
58,0.15707963,0.17453291,0.24434609,0.44129929,0.12748645,0.18632698,-0.00200000,-0.00100000,-0.00100000,16
59,0.06981317,0.17453291,0.12217305,0.72569208,0.39226600,-0.92182540,-0.00100000,-0.00100000,-0.00400000,14
60,-0.13962633,-0.15707963,-0.05235988,1.24544465,-0.11767981,-1.63771057,-0.00100000,-0.00100000,-0.00400000,16
61,-0.03490658,-0.33161256,0.15707963,1.01989161,-0.45110592,-0.76491832,0.00000000,-0.00200000,-0.00500000,15
62,-0.01745329,-0.27925267,0.33161256,0.15690641,0.06864655,0.02941990,-0.00200000,-0.00200000,-0.00500000,15
63,0.03490658,0.00000000,0.15707963,-0.43149261,1.33370447,0.31381225,-0.00200000,-0.00100000,-0.00400000,15
64,0.05235988,0.26179938,-0.27925267,0.01961330,1.41215753,0.14709949,-0.00200000,0.00000000,-0.00400000,15
65,0.10471976,0.29670596,-0.17453291,0.75511207,-0.72569208,-0.67665863,-0.00100000,-0.00200000,-0.00400000,15
66,0.08726646,0.13962633,0.10471976,1.31409120,-0.94143848,-1.37293052,-0.00100000,-0.00300000,-0.00500000,15
67,0.17453291,-0.26179938,0.29670596,1.20621800,-0.10787315,-1.56906414,-0.00200000,-0.00300000,-0.00400000,15
68,-0.01745329,-0.34906582,0.17453291,0.28439283,0.08825984,-0.41187953,-0.00200000,-0.00300000,-0.00400000,15
69,-0.22689280,-0.20943951,0.03490658,0.38245937,0.37265267,-0.31381320,-0.00200000,-0.00200000,-0.00500000,16
70,-0.03490658,-0.24434609,0.19198621,0.45110592,0.40207266,0.09806633,-0.00200000,-0.00200000,-0.00500000,14
71,0.00000000,-0.05235988,-0.01745329,0.32361946,0.69627218,0.23536014,-0.00200000,-0.00100000,-0.00400000,15
72,0.10471976,0.10471976,0.00000000,0.43149261,0.35303938,-0.26478004,-0.00200000,-0.00100000,-0.00600000,16
73,0.06981317,0.03490658,-0.01745329,0.70607876,0.01961330,-0.94143867,-0.00300000,-0.00300000,-0.00500000,14
74,0.00000000,-0.13962633,-0.01745329,0.78453202,0.00980665,-0.58839893,-0.00100000,-0.00200000,-0.00400000,15
75,0.03490658,-0.17453291,0.06981317,0.55897903,0.09806651,0.20594024,-0.00200000,-0.00100000,-0.00500000,16
76,-0.01745329,-0.05235988,0.06981317,0.44129929,0.40207266,0.32361984,-0.00200000,-0.00100000,-0.00400000,14
77,-0.13962633,0.00000000,-0.08726646,0.24516625,0.18632633,0.17651939,-0.00300000,-0.00200000,-0.00400000,16
78,-0.20943951,-0.05235988,-0.03490658,0.47071924,0.01961330,-0.38245868,-0.00400000,-0.00200000,-0.00600000,15
79,-0.31415927,-0.20943951,0.00000000,0.60801229,0.49033250,-0.71588516,-0.00300000,-0.00100000,-0.00500000,14
80,-0.26179938,-0.26179938,-0.24434609,0.34323275,1.33370447,0.06864643,-0.00400000,-0.00300000,-0.00600000,16
81,-0.22689280,0.01745329,-0.36651916,0.50013918,0.09806651,0.32361984,-0.00400000,0.00000000,-0.00600000,15
82,-0.12217305,0.00000000,0.00000000,1.07873153,-0.78453202,-1.21602439,-0.00300000,-0.00200000,-0.00500000,15
83,-0.15707963,-0.47123889,0.01745329,0.94143848,0.19613300,-0.98066520,-0.00300000,-0.00100000,-0.00600000,15
84,-0.08726646,-0.22689280,-0.03490658,0.38245937,0.41187930,1.06892490,-0.00400000,0.00000000,-0.00600000,15
85,-0.06981317,0.15707963,-0.13962633,0.61781892,-0.06864655,1.03950405,-0.00200000,-0.00200000,-0.00500000,14
86,-0.05235988,0.01745329,0.12217305,1.08853816,-0.54917240,-0.84337234,-0.00300000,0.00000000,-0.00500000,16
87,-0.10471976,-0.22689280,-0.01745329,0.94143848,0.43149261,-0.61781883,-0.00300000,0.00000000,-0.00500000,15
88,-0.10471976,-0.13962633,-0.08726646,0.43149261,0.30400614,0.05884075,-0.00500000,-0.00100000,-0.00500000,15
89,-0.10471976,-0.05235988,-0.10471976,0.46091256,0.24516625,-0.05883980,-0.00500000,-0.00100000,-0.00400000,15
90,-0.05235988,-0.06981317,-0.13962633,0.64723892,0.49033250,-0.06864643,-0.00400000,0.00000000,-0.00600000,15
91,-0.08726646,0.00000000,-0.22689280,0.81395187,0.00000000,-0.02941990,-0.00400000,0.00000000,-0.00500000,15
92,-0.06981317,-0.05235988,-0.03490658,1.07873153,-0.66685223,-0.23535919,-0.00400000,0.00000000,-0.00500000,15
93,-0.12217305,-0.26179938,0.03490658,1.07873153,0.06864655,-0.28439235,-0.00500000,0.00000000,-0.00500000,15
94,-0.20943951,-0.17453291,-0.12217305,0.47071924,0.44129929,0.83356571,-0.00400000,-0.00100000,-0.00600000,16
95,-0.15707963,0.05235988,-0.10471976,0.37265267,0.30400614,0.58839797,-0.00300000,-0.00300000,-0.00500000,14
96,-0.19198621,-0.03490658,-0.15707963,0.84337196,0.37265267,-0.24516582,-0.00500000,0.00000000,-0.00600000,15
97,-0.26179938,-0.13962633,-0.20943951,0.61781892,0.35303938,0.51975250,-0.00400000,0.00100000,-0.00500000,16
98,-0.24434609,0.15707963,-0.27925267,0.38245937,0.21574630,0.87279129,-0.00400000,0.00000000,-0.00600000,14
99,-0.24434609,0.24434609,-0.19198621,1.08853816,-0.52955913,-0.69627189,-0.00500000,0.00100000,-0.00500000,15
100,-0.22689280,-0.15707963,0.01745329,1.28467119,-0.43149261,-0.98066520,-0.00400000,0.00000000,-0.00600000,16
101,-0.20943951,-0.19198621,-0.05235988,0.48052587,0.60801229,0.37265300,-0.00300000,0.00100000,-0.00500000,15
102,-0.08726646,0.12217305,-0.13962633,0.12748645,0.32361946,0.60801219,-0.00300000,0.00100000,-0.00500000,14
103,-0.10471976,0.17453291,-0.22689280,0.50994582,0.11767981,0.03922653,-0.00300000,0.00100000,-0.00600000,16
104,-0.12217305,0.13962633,-0.24434609,0.60801229,-0.20593965,0.05884075,-0.00300000,0.00200000,-0.00500000,15
105,-0.12217305,0.26179938,-0.19198621,0.63743219,-0.27458620,-0.27458572,-0.00400000,0.00200000,-0.00500000,15
106,-0.12217305,0.05235988,-0.15707963,1.15718472,-0.53936576,-1.02969837,-0.00300000,0.00200000,-0.00600000,15
107,-0.27925267,-0.20943951,-0.08726646,0.85317859,-0.91201848,-0.57859230,-0.00300000,0.00100000,-0.00700000,15
108,-0.33161256,-0.05235988,-0.05235988,0.59820566,-0.67665886,0.13729381,-0.00300000,0.00200000,-0.00700000,15
109,-0.22689280,-0.03490658,0.03490658,0.55897903,-0.23535962,-0.64723873,-0.00300000,0.00200000,-0.00600000,16
110,-0.20943951,-0.12217305,-0.01745329,0.55897903,-0.04903325,-0.31381320,-0.00300000,0.00100000,-0.00800000,14
111,-0.15707963,0.06981317,-0.12217305,0.54917240,-0.25497291,0.04903316,-0.00500000,0.00300000,-0.00700000,16
112,-0.10471976,0.01745329,0.01745329,0.84337196,-0.64723892,-0.46091270,-0.00300000,0.00100000,-0.00700000,15
113,-0.12217305,-0.03490658,0.00000000,0.59820566,-0.19613300,-0.11767960,-0.00300000,0.00200000,-0.00700000,15
114,-0.15707963,0.06981317,-0.08726646,0.59820566,-0.21574630,-0.17651939,-0.00300000,0.00300000,-0.00600000,16
115,-0.19198621,0.00000000,-0.06981317,0.85317859,-0.50013918,-0.69627189,-0.00400000,0.00400000,-0.00600000,14
116,-0.17453291,-0.15707963,0.03490658,0.79433865,-0.53936576,-0.41187953,-0.00400000,0.00200000,-0.00700000,15
117,-0.19198621,-0.06981317,-0.03490658,0.52955913,0.00000000,-0.04903316,-0.00200000,0.00300000,-0.00700000,16
118,-0.10471976,-0.01745329,-0.10471976,0.62762565,-0.04903325,-0.18632602,-0.00400000,0.00300000,-0.00700000,14
119,-0.10471976,0.01745329,-0.12217305,0.72569208,-0.57859234,-0.09806633,-0.00400000,0.00200000,-0.00700000,15
120,-0.05235988,0.00000000,-0.05235988,0.91201848,-0.73549880,0.06864643,-0.00300000,0.00300000,-0.00700000,16
121,-0.06981317,0.05235988,0.03490658,0.69627218,-0.73549880,0.04903316,-0.00400000,0.00400000,-0.00600000,15
122,-0.10471976,0.05235988,0.00000000,0.84337196,-0.32361946,-0.26478004,-0.00400000,0.00400000,-0.00600000,14
123,-0.17453291,-0.12217305,-0.10471976,0.88259859,-0.26477956,-0.09806633,-0.00400000,0.00200000,-0.00700000,16
124,-0.17453291,-0.01745329,-0.03490658,0.52955913,-0.50013918,0.49033164,-0.00500000,0.00500000,-0.00600000,15
125,-0.12217305,0.13962633,-0.03490658,0.59820566,-0.19613300,0.13729381,-0.00300000,0.00500000,-0.00700000,16
126,-0.08726646,0.03490658,-0.10471976,1.01008498,-0.38245937,-0.60801219,-0.00400000,0.00300000,-0.00500000,15
127,-0.05235988,-0.06981317,-0.01745329,0.86298522,-0.82375860,-0.01961327,-0.00300000,0.00300000,-0.00600000,14
128,0.00000000,0.12217305,0.01745329,0.41187930,-0.45110592,0.75511264,-0.00400000,0.00300000,-0.00600000,16
129,0.05235988,0.33161256,-0.03490658,0.40207266,-0.30400614,0.29419898,-0.00300000,0.00300000,-0.00700000,15
130,0.00000000,0.26179938,-0.12217305,0.78453202,-0.30400614,-0.74530506,-0.00300000,0.00300000,-0.00600000,15
131,-0.05235988,0.06981317,-0.06981317,0.83356533,-0.50013918,-0.72569179,-0.00400000,0.00400000,-0.00600000,15
132,-0.13962633,0.00000000,-0.13962633,0.73549880,-0.53936576,-0.43149280,-0.00400000,0.00300000,-0.00700000,15
133,-0.17453291,0.03490658,-0.17453291,0.68646550,-0.64723892,-0.22555255,-0.00500000,0.00400000,-0.00700000,15
134,-0.15707963,-0.01745329,-0.06981317,0.94143848,-0.82375860,-0.47071933,-0.00400000,0.00100000,-0.00700000,15
135,-0.15707963,-0.12217305,-0.03490658,0.84337196,-0.49033250,-0.24516582,-0.00300000,0.00400000,-0.00800000,15
136,-0.10471976,-0.03490658,-0.05235988,0.50013918,-0.33342611,0.26477909,-0.00200000,0.00400000,-0.00700000,15
137,-0.01745329,0.08726646,-0.08726646,0.40207266,-0.13729310,0.06864643,-0.00300000,0.00400000,-0.00600000,16
138,-0.05235988,0.10471976,-0.12217305,0.52955913,-0.41187930,-0.20594024,-0.00400000,0.00300000,-0.00700000,15
139,-0.01745329,0.05235988,-0.08726646,0.46091256,-0.26477956,0.00000000,-0.00200000,0.00400000,-0.00700000,14
140,0.01745329,0.12217305,-0.17453291,0.43149261,-0.08825984,-0.02941990,-0.00400000,0.00500000,-0.00700000,16
141,-0.06981317,0.12217305,-0.22689280,0.59820566,-0.67665886,-0.14709949,-0.00200000,0.00500000,-0.00700000,15
142,-0.08726646,0.08726646,-0.08726646,0.71588544,-0.98066501,-0.43149280,-0.00400000,0.00400000,-0.00600000,16
143,-0.13962633,-0.05235988,-0.05235988,0.73549880,-0.68646550,-0.62762546,-0.00300000,0.00300000,-0.00700000,14
144,-0.20943951,-0.06981317,-0.06981317,0.59820566,-0.69627218,-0.39226627,-0.00300000,0.00500000,-0.00700000,15
145,-0.27925267,-0.13962633,-0.05235988,0.52955913,-0.76491875,-0.35303974,-0.00400000,0.00300000,-0.00800000,16
146,-0.13962633,-0.12217305,0.08726646,0.54917240,-0.74530534,0.10787392,-0.00200000,0.00600000,-0.00800000,15
147,-0.10471976,-0.01745329,-0.01745329,0.15690641,-0.06864655,-0.05883980,-0.00400000,0.00400000,-0.00600000,14
148,-0.06981317,0.05235988,-0.19198621,0.25497291,-0.08825984,0.04903316,-0.00300000,0.00400000,-0.00800000,16
149,-0.05235988,0.10471976,-0.19198621,0.50994582,-0.84337196,-0.29419898,-0.00400000,0.00400000,-0.00700000,15
150,-0.06981317,0.03490658,-0.10471976,0.71588544,-0.91201848,-0.54917240,-0.00200000,0.00400000,-0.00700000,15
151,-0.08726646,-0.12217305,-0.10471976,0.73549880,-0.91201848,-0.42168617,-0.00300000,0.00500000,-0.00700000,15
152,-0.13962633,-0.08726646,-0.05235988,0.50013918,-1.14737808,0.15690708,-0.00300000,0.00600000,-0.00800000,15
153,-0.12217305,0.00000000,0.03490658,0.52955913,-1.16699135,-0.04903316,-0.00600000,0.00400000,-0.00800000,15
154,-0.06981317,-0.03490658,0.08726646,0.49033250,-0.54917240,-0.20594024,-0.00300000,0.00500000,-0.00800000,16
155,-0.08726646,0.00000000,-0.08726646,0.33342611,-0.45110592,-0.37265300,-0.00400000,0.00400000,-0.00700000,14
156,0.00000000,-0.06981317,0.01745329,0.39226600,-0.72569208,-0.48052597,-0.00300000,0.00500000,-0.00800000,15
157,0.05235988,-0.05235988,0.08726646,0.18632633,-0.55897903,-0.25497341,-0.00400000,0.00600000,-0.00700000,16
158,0.12217305,0.05235988,-0.01745329,0.23535962,-0.36284604,-0.29419898,-0.00400000,0.00400000,-0.00700000,15
159,0.10471976,0.00000000,-0.03490658,0.51975245,-0.81395187,-0.59820556,-0.00400000,0.00500000,-0.00700000,15
160,0.05235988,-0.08726646,0.00000000,0.45110592,-0.74530534,-0.27458572,-0.00300000,0.00400000,-0.00600000,15
161,0.01745329,0.00000000,-0.13962633,0.33342611,-0.16671305,0.12748622,-0.00200000,0.00400000,-0.00800000,15
162,-0.05235988,0.12217305,-0.24434609,0.34323275,-0.67665886,0.04903316,-0.00400000,0.00400000,-0.00700000,16
163,-0.06981317,0.01745329,-0.19198621,0.68646550,-0.66685223,-0.23535919,-0.00300000,0.00500000,-0.00700000,14
164,0.03490658,0.00000000,-0.12217305,0.57859234,-0.63743219,0.23536014,-0.00400000,0.00600000,-0.00700000,15
165,0.00000000,0.15707963,-0.24434609,0.57859234,-0.68646550,0.33342647,-0.00400000,0.00500000,-0.00600000,16
166,-0.06981317,0.12217305,-0.12217305,0.78453202,-1.37293100,-0.42168617,-0.00300000,0.00500000,-0.00700000,15
167,-0.22689280,-0.01745329,-0.13962633,1.13757133,-1.04931151,-0.24516582,-0.00300000,0.00400000,-0.00700000,14
168,-0.27925267,-0.03490658,-0.10471976,0.66685223,-0.68646550,0.31381225,-0.00500000,0.00500000,-0.00600000,16
169,-0.33161256,0.00000000,-0.12217305,0.62762565,-0.85317859,0.03922653,-0.00400000,0.00500000,-0.00700000,15
170,-0.34906582,0.06981317,-0.08726646,0.67665886,-0.89240512,-0.02941990,-0.00400000,0.00500000,-0.00600000,15
171,-0.24434609,0.06981317,-0.08726646,0.56878566,-0.39226600,0.00980663,-0.00300000,0.00400000,-0.00700000,15
172,-0.31415927,0.13962633,-0.27925267,0.08825984,-0.51975245,0.72569179,-0.00400000,0.00500000,-0.00700000,15
173,-0.15707963,0.34906582,-0.13962633,0.01961330,-0.84337196,-0.52955913,-0.00400000,0.00600000,-0.00800000,16
174,-0.19198621,-0.03490658,-0.26179938,0.78453202,-0.45110592,-1.69655036,-0.00300000,0.00700000,-0.00700000,15
175,-0.20943951,-0.12217305,-0.10471976,0.17651968,-1.15718472,0.02941990,-0.00300000,0.00600000,-0.00700000,14
176,-0.13962633,0.17453291,0.00000000,0.01961330,-0.68646550,0.41187953,-0.00300000,0.00500000,-0.00600000,16
177,-0.26179938,0.13962633,-0.26179938,0.37265267,-0.74530534,-0.60801219,-0.00200000,0.00600000,-0.00800000,15
178,-0.17453291,-0.06981317,0.00000000,0.56878566,-1.10815143,-0.73549842,-0.00500000,0.00500000,-0.00700000,15
179,-0.13962633,0.01745329,-0.10471976,0.30400614,-0.41187930,-0.20594024,-0.00300000,0.00600000,-0.00700000,15
180,-0.08726646,0.08726646,-0.10471976,0.19613300,-0.94143848,-0.42168617,-0.00200000,0.00500000,-0.00700000,15
181,-0.12217305,0.05235988,-0.17453291,0.38245937,-0.83356533,-0.27458572,-0.00200000,0.00400000,-0.00700000,15
182,-0.26179938,0.01745329,-0.34906582,0.69627218,-1.25525128,-0.22555255,-0.00400000,0.00600000,-0.00800000,16
183,-0.10471976,-0.03490658,0.01745329,0.68646550,-1.85345687,-0.68646526,-0.00300000,0.00600000,-0.00700000,15
184,-0.29670596,-0.13962633,-0.31415927,0.48052587,-0.55897903,-0.01961327,-0.00200000,0.00500000,-0.00800000,14
185,-0.22689280,0.06981317,0.08726646,0.47071924,-2.12804293,0.00000000,-0.00300000,0.00600000,-0.00800000,16
186,-0.19198621,-0.10471976,-0.05235988,0.94143848,-0.24516625,-0.57859230,-0.00300000,0.00600000,-0.00800000,15
187,-0.12217305,-0.17453291,-0.06981317,0.52955913,-0.95124511,0.33342647,-0.00200000,0.00600000,-0.00700000,15
188,-0.03490658,0.01745329,-0.05235988,0.44129929,-0.91201848,0.60801219,-0.00300000,0.00500000,-0.00700000,15
189,-0.06981317,0.01745329,-0.06981317,0.66685223,-1.31409120,-0.19613265,-0.00200000,0.00500000,-0.00600000,15
190,-0.10471976,-0.08726646,0.03490658,0.64723892,-1.34351098,-0.15690612,-0.00200000,0.00700000,-0.00700000,16
191,-0.10471976,-0.01745329,0.03490658,0.30400614,-0.93163175,0.25497341,-0.00300000,0.00700000,-0.00700000,15
192,-0.10471976,0.10471976,-0.10471976,0.33342611,-0.87279186,-0.04903316,-0.00400000,0.00600000,-0.00700000,14
193,-0.12217305,0.00000000,-0.05235988,0.59820566,-1.27486443,-0.52955913,-0.00400000,0.00800000,-0.00700000,16
194,-0.15707963,-0.06981317,-0.03490658,0.44129929,-1.09834480,-0.12748622,-0.00200000,0.00600000,-0.00800000,15
195,-0.17453291,0.03490658,-0.10471976,0.12748645,-0.87279186,0.18632698,-0.00200000,0.00600000,-0.00700000,15
196,-0.22689280,-0.01745329,-0.12217305,0.40207266,-1.33370447,-0.47071933,-0.00500000,0.00600000,-0.00800000,15
197,-0.22689280,-0.08726646,-0.03490658,0.25497291,-1.49061069,-0.28439235,-0.00300000,0.00600000,-0.00900000,15
198,-0.13962633,-0.06981317,-0.05235988,0.21574630,-0.75511207,0.09806633,-0.00300000,0.00600000,-0.00800000,15
199,-0.05235988,0.00000000,-0.10471976,0.14709974,-1.01008498,-0.23535919,-0.00200000,0.00700000,-0.00800000,16
200,-0.01745329,0.00000000,-0.03490658,0.22555296,-1.28467119,-0.25497341,-0.00300000,0.00600000,-0.00900000,14
201,0.00000000,-0.03490658,0.06981317,0.27458620,-1.56906404,-0.37265300,-0.00200000,0.00800000,-0.00900000,15
202,-0.12217305,-0.10471976,0.10471976,0.32361946,-1.49061069,-0.63743209,-0.00300000,0.00700000,-0.00700000,16
203,-0.13962633,-0.22689280,0.05235988,0.24516625,-0.93163175,-0.19613265,-0.00300000,0.00500000,-0.00900000,15
204,-0.03490658,-0.06981317,-0.03490658,0.05883990,-0.83356533,0.34323215,-0.00400000,0.00600000,-0.00700000,14
205,-0.01745329,0.10471976,-0.17453291,0.19613300,-0.96105175,-0.39226627,-0.00400000,0.00700000,-0.00700000,16
206,-0.13962633,-0.03490658,-0.20943951,0.54917240,-1.63771057,-0.78453159,-0.00400000,0.00700000,-0.00900000,15
207,-0.19198621,-0.08726646,-0.15707963,0.45110592,-1.74558377,-0.41187953,-0.00200000,0.00600000,-0.00800000,16
208,-0.19198621,-0.12217305,-0.19198621,0.52955913,-1.14737808,-0.23535919,-0.00400000,0.00800000,-0.00700000,15
209,-0.22689280,-0.08726646,-0.15707963,0.38245937,-1.60829067,0.00000000,-0.00300000,0.00700000,-0.00800000,14
210,-0.17453291,0.06981317,-0.15707963,0.32361946,-1.01989161,0.03922653,-0.00400000,0.00700000,-0.00900000,16
211,-0.08726646,0.03490658,-0.26179938,0.63743219,-0.82375860,-0.34323310,-0.00500000,0.00700000,-0.00800000,15
212,-0.05235988,0.03490658,-0.24434609,0.66685223,-1.72597036,0.23536014,-0.00300000,0.00700000,-0.00800000,15
213,-0.05235988,0.12217305,-0.17453291,0.81395187,-1.73577713,0.58839797,-0.00400000,0.00600000,-0.00700000,15
214,-0.06981317,0.08726646,-0.08726646,1.01008498,-1.94171667,0.58839797,-0.00200000,0.00700000,-0.00900000,15
215,-0.13962633,0.12217305,-0.05235988,0.98066501,-2.02997660,0.36284542,-0.00400000,0.00800000,-0.00800000,15
216,-0.13962633,0.00000000,0.15707963,0.72569208,-1.76519718,0.06864643,-0.00200000,0.00600000,-0.00700000,16
217,-0.13962633,0.05235988,0.03490658,0.30400614,-1.06892478,0.74530506,-0.00300000,0.00800000,-0.00900000,14
218,-0.10471976,0.29670596,-0.03490658,-0.02941995,-1.17679798,0.35303974,-0.00200000,0.00700000,-0.00700000,15
219,-0.08726646,0.31415927,-0.13962633,0.38245937,-1.13757133,-0.66685199,-0.00100000,0.00700000,-0.00900000,16
220,-0.13962633,0.05235988,-0.17453291,0.36284604,-1.46119093,-0.38245868,-0.00200000,0.00700000,-0.00800000,15
221,-0.13962633,0.24434609,-0.13962633,-0.17651968,-1.71616373,0.66685199,-0.00300000,0.00800000,-0.00800000,16
222,-0.17453291,0.34906582,-0.22689280,0.22555296,-1.42196426,-0.43149280,-0.00200000,0.00800000,-0.00800000,14
223,-0.26179938,0.12217305,-0.17453291,0.17651968,-2.12804293,-1.02969837,-0.00400000,0.00900000,-0.00800000,15
224,-0.27925267,0.03490658,0.03490658,0.02941995,-1.69655036,-0.29419898,-0.00300000,0.00800000,-0.00900000,16
225,-0.24434609,0.08726646,-0.10471976,-0.02941995,-1.16699135,-0.53936576,-0.00200000,0.00900000,-0.01000000,15
226,-0.27925267,0.00000000,-0.13962633,-0.12748645,-1.77500367,-0.82375812,-0.00100000,0.00700000,-0.00900000,14
227,-0.27925267,-0.01745329,-0.13962633,-0.22555296,-1.59848403,-0.40207290,0.00000000,0.00800000,-0.00900000,16
228,-0.13962633,0.06981317,-0.05235988,-0.43149261,-1.43177089,-0.50013923,-0.00100000,0.00900000,-0.00800000,15
229,-0.13962633,0.15707963,-0.27925267,-0.31381282,-1.37293100,-0.76491832,-0.00200000,0.00800000,-0.00900000,15
230,-0.15707963,0.05235988,-0.33161256,0.10787315,-1.78481030,-0.76491832,-0.00200000,0.00900000,-0.01000000,16
231,-0.05235988,-0.03490658,-0.17453291,0.19613300,-1.83384361,-0.37265300,-0.00100000,0.00900000,-0.00800000,14
232,0.00000000,0.08726646,-0.22689280,0.00980665,-1.68674383,0.27458572,0.00000000,0.00900000,-0.00900000,15
233,0.06981317,0.26179938,-0.20943951,0.11767981,-1.96133003,-0.58839893,-0.00200000,0.00900000,-0.00900000,16
234,-0.03490658,0.05235988,-0.08726646,0.69627218,-2.74586200,-1.43177127,0.00000000,0.00900000,-0.00800000,14
235,0.03490658,-0.12217305,0.08726646,0.54917240,-1.91229667,-0.83356475,-0.00100000,0.00900000,-0.00900000,15
236,0.06981317,0.01745329,-0.15707963,-0.05883990,-1.50041747,-0.13729286,-0.00100000,0.00900000,-0.00900000,16
237,0.12217305,0.03490658,-0.01745329,0.32361946,-2.23591613,-1.09834480,-0.00100000,0.00900000,-0.00900000,15
238,0.05235988,-0.17453291,0.06981317,0.16671305,-1.94171667,-0.74530506,-0.00100000,0.00900000,-0.00900000,16
239,0.13962633,0.00000000,0.06981317,-0.41187930,-0.75511207,0.08825970,-0.00100000,0.00900000,-0.01000000,14
240,0.27925267,0.24434609,-0.36651916,-0.29419948,-0.04903325,-0.06864643,-0.00200000,0.00800000,-0.01000000,15
241,0.38397243,0.26179938,-0.38397243,0.21574630,-1.65732383,-0.72569179,-0.00100000,0.00700000,-0.01000000,16
242,0.22689280,0.00000000,-0.22689280,0.63743219,-2.52030897,-0.66685199,-0.00100000,0.00700000,-0.00900000,15
243,0.12217305,0.03490658,-0.12217305,0.27458620,-2.14765644,-0.07845306,-0.00100000,0.00700000,-0.01000000,14
244,-0.05235988,-0.05235988,-0.10471976,0.48052587,-2.09862303,-0.48052597,-0.00100000,0.00700000,-0.01100000,16
245,-0.08726646,-0.15707963,0.13962633,0.45110592,-2.25552964,-0.63743209,-0.00100000,0.00700000,-0.01100000,15
246,-0.15707963,-0.31415927,0.17453291,0.33342611,-1.51022410,-0.34323310,-0.00100000,0.00700000,-0.00900000,15
247,-0.08726646,-0.24434609,0.24434609,-0.14709974,-1.28467119,0.35303974,-0.00100000,0.00800000,-0.00900000,15
248,0.01745329,0.00000000,-0.01745329,-0.34323275,-0.32361946,0.48052597,-0.00200000,0.00900000,-0.01000000,15
249,0.13962633,0.15707963,-0.12217305,-0.14709974,-0.97085838,-0.28439235,-0.00100000,0.00800000,-0.00900000,15
250,0.22689280,0.06981317,-0.08726646,0.20593965,-1.70635709,-1.12776470,-0.00200000,0.00600000,-0.01100000,16
251,0.17453291,-0.10471976,-0.05235988,0.27458620,-1.87307014,-0.62762546,-0.00200000,0.00600000,-0.00800000,14
252,0.06981317,-0.03490658,-0.10471976,0.02941995,-1.67693719,-0.13729286,-0.00200000,0.00700000,-0.01000000,15
253,0.06981317,-0.12217305,-0.06981317,0.23535962,-1.60829067,-0.63743209,-0.00100000,0.00900000,-0.00800000,16
254,0.06981317,-0.19198621,0.03490658,-0.15690641,-1.43177089,-0.32361984,-0.00300000,0.00500000,-0.00900000,15
255,0.08726646,-0.06981317,-0.03490658,-0.20593965,-0.85317859,0.15690708,-0.00100000,0.00500000,-0.01000000,16
256,0.10471976,-0.06981317,-0.20943951,0.08825984,-0.64723892,-0.20594024,-0.00200000,0.00600000,-0.00900000,14
257,0.13962633,-0.06981317,-0.17453291,0.06864655,-1.47099757,0.18632698,-0.00200000,0.00600000,-0.00900000,15
258,0.17453291,0.00000000,-0.12217305,0.22555296,-1.30428445,0.17651939,-0.00200000,0.00800000,-0.01000000,16
259,0.13962633,-0.05235988,-0.12217305,0.32361946,-1.43177089,0.18632698,-0.00200000,0.00600000,-0.00900000,15
260,0.10471976,-0.05235988,-0.08726646,0.32361946,-1.49061069,0.08825970,-0.00100000,0.00600000,-0.01000000,14
261,0.10471976,-0.05235988,-0.03490658,0.26477956,-1.41215753,0.04903316,-0.00300000,0.00600000,-0.00800000,16
262,0.00000000,-0.06981317,-0.12217305,0.26477956,-1.47099757,0.07845306,-0.00300000,0.00700000,-0.00900000,15
263,-0.06981317,-0.08726646,-0.01745329,0.27458620,-1.69655036,-0.14709949,-0.00100000,0.00700000,-0.01000000,15
264,-0.06981317,-0.13962633,-0.05235988,0.13729310,-0.84337196,0.61781883,-0.00100000,0.00500000,-0.00900000,15
265,0.03490658,0.12217305,-0.12217305,-0.36284604,-0.64723892,0.77472496,-0.00200000,0.00600000,-0.00900000,15
266,0.00000000,0.22689280,-0.20943951,0.04903325,-1.17679798,-0.27458572,-0.00200000,0.00700000,-0.00900000,15
267,0.00000000,0.06981317,-0.05235988,0.25497291,-1.66713056,-0.67665863,-0.00200000,0.00700000,-0.01000000,16
268,-0.01745329,-0.03490658,-0.01745329,0.06864655,-1.15718472,-0.81395244,-0.00100000,0.00700000,-0.00900000,14
269,-0.05235988,-0.12217305,-0.08726646,-0.10787315,-0.90221185,-0.04903316,-0.00200000,0.00700000,-0.01000000,16
270,0.03490658,0.12217305,-0.12217305,-0.31381282,-0.84337196,0.50013923,-0.00200000,0.00600000,-0.00900000,15
271,0.08726646,0.12217305,-0.17453291,0.20593965,-1.27486443,-0.57859230,-0.00200000,0.00600000,-0.00900000,15
272,0.03490658,-0.17453291,0.03490658,0.42168598,-1.68674383,-0.66685199,-0.00100000,0.00600000,-0.00800000,15
273,0.00000000,-0.10471976,0.00000000,-0.02941995,-1.04931151,0.76491832,-0.00300000,0.00500000,-0.00900000,15
274,-0.05235988,0.19198621,-0.08726646,0.15690641,-1.00027835,0.94143772,0.00000000,0.00600000,-0.00800000,15
275,-0.15707963,-0.03490658,-0.10471976,0.83356533,-1.39254438,-0.50994586,-0.00200000,0.00700000,-0.01100000,16
276,-0.17453291,-0.22689280,0.10471976,0.40207266,-1.75539040,0.24516582,-0.00100000,0.00500000,-0.01000000,14
277,-0.15707963,0.03490658,0.08726646,-0.12748645,-0.83356533,0.32361984,-0.00200000,0.00600000,-0.01000000,15
278,-0.22689280,0.03490658,-0.10471976,0.28439283,-0.76491875,-0.83356475,0.00000000,0.00700000,-0.01000000,16
279,-0.20943951,-0.27925267,0.05235988,0.57859234,-1.17679798,-0.62762546,-0.00100000,0.00800000,-0.01100000,15
280,-0.12217305,-0.13962633,0.05235988,0.09806651,-0.73549880,0.82375812,-0.00100000,0.00600000,-0.01100000,14
281,-0.05235988,0.12217305,-0.03490658,0.10787315,-0.98066501,0.01961327,-0.00300000,0.00600000,-0.01000000,15
282,-0.06981317,0.00000000,0.01745329,0.72569208,-1.56906404,-1.02969837,-0.00100000,0.00800000,-0.00900000,15
283,-0.12217305,-0.27925267,0.19198621,0.87279186,-1.86326351,-0.70607948,-0.00200000,0.00600000,-0.01100000,15
284,-0.12217305,-0.27925267,0.22689280,0.28439283,-1.21602463,0.22555255,-0.00100000,0.00600000,-0.00900000,16
285,-0.12217305,-0.12217305,0.08726646,0.34323275,-0.83356533,0.04903316,-0.00100000,0.00600000,-0.01000000,14
286,-0.12217305,-0.19198621,0.10471976,0.68646550,-1.48080406,-0.50013923,-0.00300000,0.00800000,-0.01100000,16
287,-0.17453291,-0.33161256,0.26179938,0.54917240,-1.47099757,-0.17651939,-0.00100000,0.00600000,-0.01000000,15
288,-0.08726646,-0.10471976,0.15707963,0.02941995,-0.50994582,0.99047088,-0.00200000,0.00700000,-0.01000000,15
289,-0.03490658,0.19198621,-0.05235988,0.34323275,-0.69627218,0.21574592,-0.00400000,0.00800000,-0.01000000,15
290,-0.08726646,0.00000000,-0.03490658,0.95124511,-1.55925726,-1.07873153,-0.00300000,0.00700000,-0.01100000,15
291,-0.08726646,-0.17453291,0.15707963,0.72569208,-1.93191003,-0.42168617,-0.00300000,0.00500000,-0.01000000,15
292,-0.05235988,-0.03490658,0.10471976,0.30400614,-1.08853816,-0.07845306,-0.00300000,0.00700000,-0.01000000,16
293,-0.08726646,-0.05235988,-0.01745329,0.72569208,-1.39254438,-0.40207290,-0.00300000,0.00700000,-0.01100000,14
294,-0.06981317,-0.13962633,0.20943951,0.56878566,-1.92210340,0.07845306,-0.00400000,0.00700000,-0.00900000,15
295,-0.05235988,0.00000000,0.17453291,0.20593965,-0.65704560,0.40207290,-0.00200000,0.00700000,-0.01000000,16
296,0.05235988,0.20943951,-0.01745329,0.23535962,-0.88259859,-0.09806633,-0.00400000,0.00600000,-0.01000000,15
297,0.10471976,0.13962633,0.01745329,0.61781892,-1.42196426,-1.12776470,-0.00100000,0.00600000,-0.00900000,14
298,0.06981317,-0.05235988,0.05235988,0.50013918,-1.39254438,-0.75511264,-0.00300000,0.00600000,-0.01100000,16
299,0.03490658,0.01745329,0.03490658,0.15690641,-1.43177089,0.15690708,-0.00300000,0.00600000,-0.01100000,15
300,0.00000000,0.15707963,0.00000000,0.39226600,-1.35331773,-0.67665863,-0.00400000,0.00600000,-0.01100000,16
301,-0.08726646,-0.03490658,0.03490658,0.63743219,-1.93191003,-1.18660449,-0.00300000,0.00800000,-0.01000000,14
302,-0.05235988,-0.19198621,0.24434609,0.37265267,-1.59848403,-0.76491832,-0.00300000,0.00800000,-0.01100000,15
303,-0.01745329,-0.05235988,0.10471976,0.05883990,-0.48052587,-0.07845306,-0.00200000,0.00700000,-0.01100000,16
304,0.05235988,0.01745329,-0.06981317,0.30400614,-0.93163175,-0.30400657,-0.00300000,0.00700000,-0.01100000,15
305,0.08726646,0.00000000,0.03490658,0.37265267,-1.52003073,-0.36284637,-0.00500000,0.00800000,-0.01100000,15
306,0.10471976,0.01745329,0.06981317,0.39226600,-1.21602463,-0.23535919,-0.00300000,0.00700000,-0.01200000,15
307,0.10471976,0.03490658,0.00000000,0.40207266,-1.30428445,-0.49033260,-0.00200000,0.00600000,-0.01200000,15
308,0.05235988,-0.03490658,0.01745329,0.47071924,-1.61809730,-0.50994586,-0.00300000,0.00500000,-0.01100000,15
309,0.01745329,-0.03490658,0.05235988,0.43149261,-1.48080406,-0.50994586,-0.00200000,0.00700000,-0.01100000,15
310,-0.05235988,-0.19198621,0.13962633,0.41187930,-1.49061069,-0.45110607,-0.00400000,0.00800000,-0.01200000,15
311,0.01745329,-0.12217305,0.13962633,0.00980665,-0.56878566,0.19613265,-0.00300000,0.00600000,-0.01100000,15
312,0.08726646,0.05235988,-0.08726646,0.08825984,-0.25497291,0.62762546,-0.00100000,0.00700000,-0.01100000,16
313,0.15707963,0.19198621,-0.13962633,0.27458620,-1.01008498,0.18632698,-0.00200000,0.00700000,-0.01000000,15
314,0.15707963,0.13962633,-0.08726646,0.60801229,-1.41215753,-0.71588516,-0.00300000,0.00600000,-0.01100000,14
315,0.03490658,-0.08726646,0.06981317,0.65704560,-2.03978323,-0.50994586,-0.00500000,0.00500000,-0.01100000,16
316,-0.03490658,-0.10471976,0.17453291,0.33342611,-1.56906404,0.24516582,-0.00400000,0.00700000,-0.01000000,15
317,-0.01745329,0.05235988,0.10471976,0.06864655,-0.60801229,0.06864643,-0.00400000,0.00500000,-0.01100000,16
318,-0.03490658,0.01745329,0.05235988,0.26477956,-0.78453202,-0.54917240,-0.00300000,0.00600000,-0.01000000,14
319,-0.01745329,-0.03490658,0.00000000,0.27458620,-0.81395187,-0.50013923,-0.00400000,0.00600000,-0.01200000,15
320,0.00000000,-0.12217305,0.05235988,0.19613300,-0.90221185,-0.30400657,-0.00200000,0.00600000,-0.01200000,16
321,0.12217305,0.05235988,-0.05235988,-0.11767981,-0.44129929,0.48052597,-0.00300000,0.00500000,-0.01100000,15
322,0.08726646,0.22689280,-0.24434609,0.19613300,-1.25525128,0.08825970,-0.00300000,0.00600000,-0.01000000,14
323,-0.03490658,0.00000000,0.01745329,0.71588544,-2.30456280,-1.21602439,-0.00300000,0.00600000,-0.00900000,16
324,-0.22689280,-0.24434609,0.17453291,0.47071924,-1.76519718,-0.83356475,-0.00200000,0.00500000,-0.01100000,15
325,-0.22689280,-0.26179938,0.20943951,0.07845321,-0.82375860,-0.22555255,-0.00200000,0.00600000,-0.01300000,15
326,-0.19198621,-0.19198621,0.17453291,-0.17651968,-0.67665886,-0.20594024,-0.00200000,0.00500000,-0.01000000,15
327,-0.10471976,-0.20943951,0.05235988,-0.13729310,0.01961330,0.14709949,-0.00500000,0.00600000,-0.01100000,15
328,0.00000000,0.03490658,-0.13962633,-0.22555296,-0.41187930,0.37265300,-0.00500000,0.00600000,-0.01100000,15
329,0.01745329,0.03490658,-0.10471976,0.51975245,-1.49061069,-0.80414581,-0.00300000,0.00600000,-0.01000000,16
330,-0.01745329,-0.26179938,0.05235988,0.56878566,-1.52003073,-0.30400657,-0.00300000,0.00500000,-0.01100000,14
331,-0.05235988,-0.15707963,0.01745329,0.21574630,-1.32389783,0.65704631,-0.00400000,0.00600000,-0.01000000,15
332,-0.13962633,-0.08726646,0.13962633,0.46091256,-1.79461693,-0.20594024,-0.00500000,0.00700000,-0.01100000,16
333,-0.08726646,-0.24434609,0.26179938,0.29419948,-0.70607876,-0.03922653,-0.00300000,0.00600000,-0.01100000,15
334,-0.05235988,-0.03490658,-0.01745329,0.00000000,0.00980665,0.14709949,-0.00400000,0.00600000,-0.01100000,16
335,-0.01745329,0.01745329,-0.17453291,0.25497291,-0.85317859,-0.14709949,-0.00500000,0.00500000,-0.01000000,14
336,0.05235988,0.05235988,-0.13962633,0.42168598,-1.53964414,-0.27458572,-0.00400000,0.00600000,-0.01100000,15
337,0.08726646,0.01745329,0.00000000,0.56878566,-1.54945077,-0.51975250,-0.00500000,0.00700000,-0.01200000,16
338,-0.01745329,-0.03490658,-0.05235988,0.50013918,-1.44157752,-0.52955913,-0.00500000,0.00700000,-0.01200000,14
339,-0.01745329,-0.15707963,0.13962633,0.51975245,-1.43177089,-0.88259792,-0.00400000,0.00600000,-0.01000000,14
340,-0.05235988,-0.19198621,0.03490658,0.38245937,-0.78453202,-0.14709949,-0.00400000,0.00600000,-0.01100000,16
341,0.01745329,0.00000000,0.03490658,0.33342611,-0.89240512,-0.13729286,-0.00500000,0.00500000,-0.01100000,15
342,0.03490658,-0.13962633,0.06981317,0.67665886,-0.69627218,-0.71588516,-0.00400000,0.00500000,-0.01100000,15
343,0.10471976,-0.17453291,-0.01745329,0.31381282,0.05883990,0.26477909,-0.00600000,0.00600000,-0.01100000,15
344,0.29670596,0.17453291,-0.26179938,0.20593965,0.45110592,0.89240455,-0.00500000,0.00600000,-0.01200000,15
345,0.33161256,0.29670596,-0.41887903,0.86298522,-1.55925726,-0.23535919,-0.00500000,0.00600000,-0.01200000,15
346,0.22689280,0.06981317,-0.05235988,1.29447782,-2.55953574,-0.50994586,-0.00400000,0.00600000,-0.01100000,16
347,0.03490658,-0.05235988,0.12217305,1.14737808,-1.92210340,-0.40207290,-0.00400000,0.00500000,-0.01000000,14
348,-0.17453291,-0.08726646,0.13962633,1.06892478,-1.98094348,-0.03922653,-0.00400000,0.00400000,-0.01200000,16
349,-0.24434609,-0.15707963,0.34906582,1.13757133,-1.86326351,-0.25497341,-0.00400000,0.00400000,-0.01200000,15
350,-0.26179938,-0.27925267,0.43633232,0.89240512,-0.86298522,-0.03922653,-0.00400000,0.00400000,-0.00900000,15
351,-0.19198621,-0.05235988,0.19198621,0.17651968,0.00980665,0.88259887,-0.00400000,0.00600000,-0.01100000,16
352,-0.06981317,0.24434609,0.00000000,0.38245937,-0.29419948,0.41187953,-0.00500000,0.00600000,-0.01000000,14
353,0.00000000,0.12217305,-0.05235988,0.78453202,-0.74530534,-0.73549842,-0.00400000,0.00600000,-0.01100000,15
354,0.06981317,0.08726646,-0.05235988,0.48052587,-0.93163175,-0.27458572,-0.00600000,0.00500000,-0.01200000,16
355,0.06981317,0.17453291,-0.10471976,0.64723892,-1.19641137,-0.18632602,-0.00400000,0.00500000,-0.01200000,15
356,0.03490658,0.10471976,0.03490658,0.92182512,-1.79461693,-0.38245868,-0.00500000,0.00600000,-0.01100000,14
357,0.01745329,0.06981317,0.10471976,0.59820566,-1.11795806,-0.61781883,-0.00500000,0.00600000,-0.01100000,16
358,-0.08726646,0.01745329,0.00000000,0.58839898,-1.42196426,-0.56878566,-0.00500000,0.00600000,-0.01100000,15
359,-0.13962633,-0.06981317,0.17453291,0.73549880,-2.07900977,-0.65704536,-0.00500000,0.00600000,-0.01200000,15
360,-0.10471976,-0.13962633,0.31415927,0.49033250,-0.75511207,-0.22555255,-0.00300000,0.00600000,-0.01100000,15
361,-0.10471976,-0.06981317,0.08726646,0.21574630,-0.30400614,0.21574592,-0.00500000,0.00500000,-0.01300000,15
362,-0.03490658,0.08726646,0.03490658,0.22555296,-0.74530534,0.07845306,-0.00400000,0.00600000,-0.01300000,15
363,-0.06981317,0.03490658,-0.05235988,0.25497291,-0.83356533,-0.06864643,-0.00400000,0.00600000,-0.01200000,16
364,0.00000000,0.13962633,0.00000000,0.35303938,-0.97085838,0.13729381,-0.00400000,0.00600000,-0.01200000,15
365,-0.05235988,0.12217305,-0.03490658,0.56878566,-1.16699135,-0.69627189,-0.00400000,0.00700000,-0.01100000,15
366,-0.13962633,-0.12217305,0.13962633,0.71588544,-1.66713056,-0.78453159,-0.00400000,0.00600000,-0.01200000,15
367,-0.05235988,-0.22689280,0.19198621,0.17651968,-0.28439283,0.00000000,-0.00400000,0.00500000,-0.01200000,15
368,0.06981317,0.12217305,-0.15707963,-0.28439283,0.15690641,1.16699123,-0.00500000,0.00600000,-0.01300000,16
369,0.10471976,0.34906582,-0.20943951,0.24516625,-1.34351098,0.25497341,-0.00500000,0.00600000,-0.01100000,14
370,0.00000000,0.06981317,-0.08726646,0.84337196,-1.50041747,-1.19641113,-0.00300000,0.00700000,-0.01300000,15
371,-0.01745329,-0.17453291,0.10471976,0.54917240,-1.60829067,-0.24516582,-0.00400000,0.00500000,-0.01100000,16
372,-0.03490658,0.06981317,0.12217305,0.23535962,-1.58867731,0.57859230,-0.00400000,0.00700000,-0.01200000,15
373,-0.20943951,0.01745329,0.13962633,0.65704560,-1.63771057,-1.20621776,-0.00500000,0.00600000,-0.01200000,14
374,-0.12217305,-0.41887903,0.45378561,0.32361946,-0.70607876,-0.48052597,-0.00400000,0.00600000,-0.01100000,16
375,-0.03490658,-0.03490658,-0.01745329,-0.64723892,0.90221185,1.54945087,-0.00600000,0.00600000,-0.01200000,15
376,0.03490658,0.29670596,-0.20943951,0.00980665,-0.92182512,-0.38245868,-0.00300000,0.00600000,-0.01100000,15
377,0.01745329,-0.05235988,0.08726646,0.77472538,-1.73577713,-0.91201877,-0.00400000,0.00600000,-0.01100000,16
378,-0.03490658,-0.10471976,0.12217305,0.26477956,-0.99047174,0.16671276,-0.00300000,0.00600000,-0.01300000,14
379,-0.08726646,0.05235988,0.03490658,0.40207266,-1.10815143,-0.19613265,-0.00400000,0.00500000,-0.01200000,15
380,-0.13962633,-0.22689280,0.15707963,0.64723892,-1.39254438,-0.87279129,-0.00400000,0.00700000,-0.01300000,16
381,-0.13962633,-0.20943951,0.20943951,0.14709974,-0.99047174,0.31381225,-0.00300000,0.00700000,-0.01300000,15
382,-0.10471976,0.00000000,0.12217305,0.07845321,-0.53936576,0.24516582,-0.00500000,0.00600000,-0.01300000,15
383,-0.01745329,-0.08726646,0.12217305,0.31381282,-0.53936576,-0.59820556,-0.00300000,0.00600000,-0.01200000,15
384,0.03490658,-0.06981317,0.03490658,0.16671305,-0.70607876,0.26477909,-0.00400000,0.00600000,-0.01200000,15
385,0.03490658,0.10471976,-0.01745329,0.17651968,-1.15718472,0.02941990,-0.00400000,0.00700000,-0.01300000,16
386,0.00000000,0.05235988,0.05235988,0.73549880,-1.64751720,0.00000000,-0.00400000,0.00700000,-0.01200000,14
387,0.00000000,0.00000000,0.08726646,0.47071924,-1.16699135,-0.06864643,-0.00500000,0.00500000,-0.01300000,15
388,-0.08726646,0.08726646,0.01745329,0.22555296,-1.57887067,-0.27458572,-0.00500000,0.00600000,-0.01100000,16
389,-0.15707963,0.00000000,0.19198621,0.83356533,-1.72597036,-0.78453159,-0.00600000,0.00600000,-0.01100000,15
390,-0.12217305,-0.19198621,0.27925267,0.62762565,-1.11795806,-0.34323310,-0.00500000,0.00600000,-0.01100000,14
391,-0.05235988,0.00000000,0.15707963,0.34323275,-0.77472538,0.41187953,-0.00500000,0.00600000,-0.01200000,16
392,-0.06981317,0.10471976,0.01745329,0.40207266,-1.21602463,-0.40207290,-0.00400000,0.00800000,-0.01100000,15
393,-0.03490658,0.01745329,0.20943951,0.58839898,-1.26505780,-0.71588516,-0.00400000,0.00600000,-0.01200000,15
394,0.12217305,0.00000000,0.06981317,0.23535962,-0.11767981,-0.04903316,-0.00600000,0.00600000,-0.01300000,15
395,0.26179938,0.29670596,-0.13962633,0.08825984,-0.69627218,0.12748622,-0.00500000,0.00500000,-0.01300000,15
396,0.20943951,0.15707963,0.05235988,0.85317859,-1.97113666,-1.17679786,-0.00300000,0.00600000,-0.01200000,16
397,0.13962633,-0.10471976,0.27925267,0.48052587,-1.36312437,-0.50013923,-0.00500000,0.00600000,-0.01100000,15
398,-0.03490658,0.05235988,-0.03490658,0.29419948,-0.86298522,-0.00980663,-0.00500000,0.00600000,-0.01300000,14
399,-0.06981317,-0.03490658,0.12217305,0.60801229,-1.82403697,-0.70607948,-0.00600000,0.00700000,-0.01200000,16
400,-0.19198621,-0.24434609,0.33161256,0.58839898,-1.57887067,-0.95124530,-0.00300000,0.00600000,-0.01200000,15
401,-0.12217305,-0.29670596,0.27925267,0.11767981,-0.15690641,0.10787392,-0.00400000,0.00700000,-0.01200000,15
402,0.01745329,0.03490658,0.12217305,-0.32361946,-0.05883990,0.87279129,-0.00400000,0.00600000,-0.01100000,16
403,0.10471976,0.15707963,-0.08726646,0.22555296,0.06864655,-0.37265300,-0.00600000,0.00500000,-0.01200000,14
404,0.08726646,0.03490658,-0.10471976,0.50013918,-1.45138416,-0.77472496,-0.00400000,0.00500000,-0.01300000,15
405,0.03490658,-0.10471976,0.06981317,0.58839898,-1.72597036,-0.45110607,-0.00500000,0.00400000,-0.01200000,16
406,-0.03490658,-0.10471976,0.10471976,0.33342611,-1.17679798,-0.19613265,-0.00400000,0.00500000,-0.01300000,15
407,-0.06981317,-0.12217305,0.12217305,0.23535962,-0.87279186,-0.62762546,-0.00500000,0.00600000,-0.01200000,14
408,-0.03490658,-0.20943951,0.03490658,0.07845321,-0.29419948,-0.06864643,-0.00500000,0.00600000,-0.01200000,16
409,0.06981317,0.00000000,-0.01745329,0.22555296,-0.72569208,0.32361984,-0.00400000,0.00600000,-0.01300000,15
410,0.05235988,-0.03490658,0.03490658,0.53936576,-0.89240512,-0.62762546,-0.00500000,0.00500000,-0.01300000,15
411,0.05235988,-0.15707963,-0.03490658,0.50994582,-0.76491875,-0.18632602,-0.00500000,0.00500000,-0.01300000,15
412,0.01745329,-0.13962633,0.00000000,0.49033250,-1.19641137,-0.07845306,-0.00500000,0.00700000,-0.01300000,15
413,-0.01745329,-0.17453291,0.12217305,0.68646550,-1.30428445,0.06864643,-0.00600000,0.00600000,-0.01300000,16
414,-0.03490658,-0.13962633,0.19198621,0.45110592,-0.95124511,0.14709949,-0.00400000,0.00400000,-0.01300000,15
415,0.01745329,-0.08726646,0.08726646,0.25497291,-0.02941995,0.24516582,-0.00500000,0.00600000,-0.01100000,14
416,0.05235988,-0.03490658,-0.01745329,0.23535962,-0.02941995,0.18632698,-0.00600000,0.00500000,-0.01400000,16
417,0.08726646,0.05235988,-0.06981317,0.46091256,-0.42168598,0.13729381,-0.00500000,0.00400000,-0.01300000,15
418,0.06981317,0.00000000,-0.06981317,0.75511207,-0.97085838,-0.33342552,-0.00500000,0.00500000,-0.01200000,15
419,-0.03490658,-0.08726646,0.06981317,0.75511207,-1.80442371,-0.09806633,-0.00600000,0.00600000,-0.01300000,15
420,-0.08726646,-0.10471976,0.20943951,0.56878566,-1.31409120,0.00000000,-0.00600000,0.00500000,-0.01300000,14
421,-0.08726646,-0.05235988,0.19198621,0.37265267,-0.74530534,0.14709949,-0.00600000,0.00600000,-0.01200000,15
422,0.00000000,0.05235988,0.06981317,0.35303938,-0.18632633,-0.30400657,-0.00600000,0.00600000,-0.01400000,16
423,0.00000000,0.06981317,-0.05235988,0.45110592,-0.91201848,-0.58839893,-0.00500000,0.00400000,-0.01100000,14
424,-0.03490658,-0.10471976,0.10471976,0.70607876,-1.37293100,-0.62762546,-0.00600000,0.00400000,-0.01300000,15
425,0.01745329,-0.12217305,0.10471976,0.39226600,-0.44129929,0.16671276,-0.00500000,0.00600000,-0.01400000,16
426,0.12217305,0.08726646,-0.08726646,0.00980665,-0.05883990,0.75511264,-0.00600000,0.00600000,-0.01300000,15
427,0.15707963,0.36651916,-0.22689280,0.32361946,-0.90221185,-0.35303974,-0.00700000,0.00600000,-0.01300000,14
428,0.06981317,0.06981317,0.00000000,1.17679798,-1.99074993,-1.66713047,-0.00300000,0.00500000,-0.01400000,16
429,-0.06981317,-0.26179938,0.31415927,0.80414533,-2.02997660,-0.46091270,-0.00600000,0.00500000,-0.01300000,15
430,-0.10471976,-0.05235988,0.26179938,0.23535962,-0.69627218,0.33342647,-0.00600000,0.00500000,-0.01200000,16
431,-0.12217305,-0.03490658,0.20943951,0.28439283,-0.45110592,-0.49033260,-0.00800000,0.00500000,-0.01300000,15
432,0.03490658,0.00000000,0.13962633,-0.04903325,0.35303938,-0.54917240,-0.00700000,0.00500000,-0.01200000,14
433,0.10471976,0.13962633,-0.15707963,-0.04903325,0.39226600,-0.80414581,-0.00500000,0.00500000,-0.01200000,16
434,0.08726646,0.00000000,-0.05235988,0.41187930,-1.28467119,-1.28467082,-0.00600000,0.00600000,-0.01300000,15
435,0.06981317,-0.19198621,0.12217305,0.38245937,-0.52955913,-0.82375812,-0.00700000,0.00500000,-0.01200000,15
436,0.05235988,-0.05235988,-0.10471976,-0.05883990,0.12748645,0.42168617,-0.00600000,0.00500000,-0.01300000,15
437,0.05235988,0.17453291,-0.22689280,0.38245937,-0.92182512,-0.26478004,-0.00600000,0.00400000,-0.01300000,15
438,-0.05235988,-0.10471976,-0.05235988,1.69655036,-1.98094348,-1.77500343,-0.00600000,0.00500000,-0.01200000,15
439,-0.06981317,-0.33161256,0.22689280,0.93163175,-1.13757133,-0.04903316,-0.00500000,0.00500000,-0.01200000,16
440,-0.05235988,-0.10471976,0.00000000,0.22555296,0.12748645,1.25525188,-0.00600000,0.00600000,-0.01200000,15
441,-0.01745329,0.15707963,-0.19198621,0.45110592,-0.22555296,0.07845306,-0.00500000,0.00500000,-0.01100000,14
442,0.01745329,-0.06981317,-0.01745329,0.97085838,-1.12776482,-0.56878566,-0.00700000,0.00400000,-0.01300000,16
443,0.05235988,-0.12217305,0.00000000,0.63743219,-0.42168598,0.24516582,-0.00600000,0.00400000,-0.01200000,15
444,0.06981317,0.03490658,-0.15707963,0.58839898,-0.55897903,0.52955913,-0.00700000,0.00500000,-0.01200000,16
445,0.03490658,0.01745329,-0.06981317,0.99047174,-1.50041747,0.18632698,-0.00700000,0.00500000,-0.01300000,14
446,0.01745329,-0.01745329,0.08726646,0.85317859,-1.38273775,0.11767960,-0.00600000,0.00300000,-0.01300000,15
447,-0.03490658,-0.01745329,0.13962633,0.61781892,-0.80414533,-0.14709949,-0.00700000,0.00500000,-0.01200000,16
448,0.03490658,0.00000000,0.13962633,0.39226600,-0.04903325,-0.04903316,-0.00700000,0.00500000,-0.01300000,15
449,0.08726646,0.06981317,-0.10471976,0.27458620,0.30400614,0.00980663,-0.00500000,0.00500000,-0.01200000,14
450,0.06981317,0.12217305,-0.20943951,0.58839898,-0.50013918,-0.05883980,-0.00700000,0.00400000,-0.01200000,16
451,0.03490658,0.05235988,-0.03490658,0.73549880,-1.32389783,-0.20594024,-0.00600000,0.00400000,-0.01100000,15
452,0.00000000,0.05235988,0.01745329,0.64723892,-0.88259859,-0.36284637,-0.00500000,0.00400000,-0.01300000,15
453,-0.06981317,-0.01745329,0.00000000,0.66685223,-1.05911827,-0.37265300,-0.00500000,0.00500000,-0.01100000,15
454,-0.05235988,-0.06981317,0.12217305,0.47071924,-0.76491875,-0.16671371,-0.00500000,0.00400000,-0.01300000,15
455,0.00000000,0.00000000,-0.03490658,0.28439283,-0.03922660,0.33342647,-0.00600000,0.00400000,-0.01100000,15
456,0.00000000,0.13962633,-0.15707963,0.35303938,-0.82375860,0.01961327,-0.00600000,0.00300000,-0.01200000,15
457,-0.06981317,0.05235988,0.01745329,0.59820566,-1.68674383,-0.45110607,-0.00500000,0.00500000,-0.01200000,15
458,-0.10471976,-0.01745329,0.13962633,0.51975245,-0.82375860,-0.54917240,-0.00500000,0.00500000,-0.01200000,15
459,-0.08726646,-0.08726646,0.10471976,0.33342611,-0.33342611,-0.01961327,-0.00500000,0.00500000,-0.01200000,16
460,-0.06981317,0.03490658,-0.03490658,0.12748645,-0.08825984,-0.30400657,-0.00600000,0.00400000,-0.01300000,14
461,-0.03490658,-0.01745329,-0.08726646,0.33342611,-0.43149261,-0.34323310,-0.00300000,0.00500000,-0.01200000,16
462,-0.03490658,-0.01745329,-0.06981317,0.34323275,-0.89240512,-0.38245868,-0.00600000,0.00500000,-0.01300000,15
463,-0.08726646,-0.10471976,0.08726646,0.46091256,-1.36312437,-0.10787297,-0.00500000,0.00400000,-0.01200000,15
464,-0.05235988,-0.05235988,0.10471976,0.24516625,-0.27458620,-0.10787297,-0.00500000,0.00600000,-0.01400000,16
465,-0.03490658,-0.06981317,-0.05235988,0.27458620,0.00980665,0.04903316,-0.00600000,0.00500000,-0.01200000,14
466,0.00000000,0.05235988,-0.06981317,0.32361946,-0.54917240,0.11767960,-0.00600000,0.00400000,-0.01200000,15
467,-0.03490658,-0.03490658,-0.03490658,0.57859234,-0.99047174,-0.19613265,-0.00400000,0.00400000,-0.01300000,16
468,-0.01745329,-0.03490658,0.08726646,0.41187930,-0.82375860,-0.09806633,-0.00500000,0.00500000,-0.01200000,15
469,-0.06981317,-0.03490658,0.00000000,0.37265267,-0.56878566,-0.14709949,-0.00700000,0.00400000,-0.01300000,14
470,-0.05235988,-0.03490658,0.01745329,0.42168598,-0.69627218,-0.15690612,-0.00700000,0.00500000,-0.01200000,16
471,-0.01745329,-0.01745329,0.01745329,0.36284604,-0.63743219,-0.06864643,-0.00700000,0.00400000,-0.01100000,15
472,-0.05235988,0.00000000,-0.03490658,0.54917240,-0.83356533,0.03922653,-0.00600000,0.00500000,-0.01200000,15
473,-0.03490658,0.00000000,0.03490658,0.47071924,-0.86298522,-0.06864643,-0.00600000,0.00300000,-0.01200000,15
474,-0.08726646,-0.01745329,0.00000000,0.45110592,-0.90221185,-0.25497341,-0.00600000,0.00600000,-0.01100000,15
475,-0.06981317,-0.05235988,0.08726646,0.49033250,-0.72569208,-0.19613265,-0.00700000,0.00400000,-0.01000000,16
476,-0.03490658,-0.01745329,0.00000000,0.33342611,-0.36284604,0.15690708,-0.00700000,0.00600000,-0.01200000,15
477,-0.01745329,0.06981317,-0.03490658,0.38245937,-0.83356533,-0.12748622,-0.00600000,0.00500000,-0.01400000,14
478,-0.08726646,-0.01745329,0.08726646,0.61781892,-1.31409120,-0.50994586,-0.00500000,0.00500000,-0.01200000,16
479,-0.05235988,-0.05235988,0.13962633,0.21574630,-0.48052587,-0.17651939,-0.00600000,0.00400000,-0.01200000,15
480,-0.05235988,0.05235988,-0.05235988,0.13729310,-0.27458620,0.21574592,-0.00500000,0.00400000,-0.01200000,15
481,-0.06981317,0.15707963,0.00000000,0.46091256,-1.18660461,-0.06864643,-0.00600000,0.00500000,-0.01200000,15
482,-0.17453291,-0.12217305,0.06981317,0.80414533,-1.17679798,-1.17679786,-0.00500000,0.00500000,-0.01300000,15
483,-0.10471976,-0.19198621,0.19198621,0.32361946,-0.76491875,0.00980663,-0.00500000,0.00500000,-0.01400000,15
484,-0.05235988,0.05235988,0.03490658,0.09806651,-0.17651968,0.57859230,-0.00600000,0.00400000,-0.01300000,16
485,-0.05235988,0.05235988,0.01745329,0.47071924,-0.71588544,-0.21574687,-0.00500000,0.00400000,-0.01200000,14
486,-0.01745329,-0.03490658,0.05235988,0.43149261,-0.44129929,-0.26478004,-0.00600000,0.00600000,-0.01300000,15
487,-0.01745329,0.00000000,-0.05235988,0.34323275,-0.42168598,-0.03922653,-0.00500000,0.00600000,-0.01300000,16
488,0.01745329,-0.05235988,0.03490658,0.49033250,-1.06892478,-0.21574687,-0.00500000,0.00500000,-0.01200000,15
489,-0.01745329,0.01745329,0.10471976,0.69627218,-0.97085838,-0.11767960,-0.00700000,0.00500000,-0.01300000,15
490,-0.08726646,-0.01745329,-0.06981317,0.47071924,-0.53936576,-0.21574687,-0.00600000,0.00500000,-0.01300000,15
491,-0.03490658,0.00000000,0.05235988,0.36284604,-0.86298522,-0.05883980,-0.00600000,0.00600000,-0.01300000,15
492,0.00000000,0.01745329,-0.01745329,0.50994582,-0.40207266,-0.42168617,-0.00500000,0.00500000,-0.01200000,16
493,0.00000000,0.01745329,-0.03490658,0.34323275,-0.82375860,-0.62762546,-0.00600000,0.00400000,-0.01100000,14
494,0.00000000,-0.06981317,0.05235988,0.44129929,-1.06892478,-0.40207290,-0.00500000,0.00500000,-0.01200000,15
495,-0.01745329,-0.05235988,0.00000000,0.24516625,-0.60801229,-0.11767960,-0.00500000,0.00500000,-0.01200000,16
496,-0.03490658,0.00000000,0.03490658,0.33342611,-1.03950488,-0.35303974,-0.00600000,0.00500000,-0.01300000,15
497,-0.05235988,-0.08726646,0.05235988,0.40207266,-0.79433865,-0.20594024,-0.00600000,0.00500000,-0.01200000,14
498,-0.01745329,-0.01745329,0.03490658,0.24516625,-0.31381282,0.00000000,-0.00700000,0.00600000,-0.01200000,16
499,-0.05235988,0.00000000,-0.05235988,0.36284604,-0.50994582,-0.02941990,-0.00500000,0.00400000,-0.01300000,15
