capture duration,Gyroscope X (rad/s),Gyroscope Y (rad/s),Gyroscope Z (rad/s),Accelerometer X (m/s²),Accelerometer Y (m/s²),Accelerometer Z (m/s²),Magnetometer X (mT),Magnetometer Y (mT),Magnetometer Z (mT),time
0,-0.05235988,-0.08726646,0.00000000,0.22555296,0.03922660,-0.03922653,0.00000000,0.00100000,0.00100000,0
1,-0.03490658,-0.01745329,0.01745329,0.02941995,0.04903325,0.03922653,0.00100000,0.00000000,0.00100000,15
2,-0.05235988,0.00000000,-0.03490658,0.06864655,0.05883990,0.00000000,0.00000000,0.00000000,0.00000000,15
3,0.00000000,0.01745329,0.01745329,0.09806651,0.04903325,-0.26478004,0.00100000,0.00000000,0.00000000,15
4,-0.05235988,-0.05235988,-0.05235988,0.30400614,0.09806651,-0.39226627,0.00000000,0.00100000,0.00100000,15
5,-0.03490658,-0.06981317,-0.05235988,0.16671305,-0.05883990,0.01961327,0.00000000,0.00000000,0.00000000,14
6,-0.03490658,-0.01745329,0.00000000,0.07845321,-0.11767981,0.13729381,0.00000000,0.00000000,0.00000000,16
7,-0.03490658,0.03490658,0.00000000,0.15690641,-0.06864655,0.00980663,0.00000000,0.00100000,0.00000000,14
8,-0.01745329,0.01745329,0.01745329,0.29419948,-0.06864655,-0.28439235,0.00100000,-0.00100000,-0.00100000,15
9,-0.03490658,-0.03490658,0.00000000,0.26477956,-0.03922660,-0.30400657,0.00000000,0.00000000,-0.00100000,15
10,-0.03490658,-0.06981317,0.00000000,0.19613300,-0.03922660,0.04903316,0.00000000,0.00000000,0.00000000,14
11,-0.03490658,0.00000000,-0.05235988,0.07845321,-0.00980665,0.19613265,0.00100000,0.00000000,-0.00100000,14
12,-0.01745329,0.06981317,-0.01745329,0.14709974,-0.18632633,-0.18632602,-0.00100000,0.00000000,-0.00200000,16
13,-0.03490658,-0.03490658,0.03490658,0.30400614,-0.11767981,-0.42168617,0.00000000,0.00000000,0.00000000,15
14,-0.01745329,-0.08726646,0.03490658,0.08825984,0.13729310,-0.08825970,0.00000000,0.00000000,0.00000000,14
15,-0.03490658,-0.03490658,-0.03490658,0.03922660,0.12748645,0.12748622,0.00100000,-0.00100000,0.00000000,16
16,-0.03490658,0.01745329,-0.01745329,0.06864655,-0.04903325,0.03922653,0.00000000,0.00000000,0.00100000,14
17,-0.01745329,0.00000000,0.03490658,0.26477956,-0.08825984,-0.29419898,0.00000000,0.00100000,0.00000000,15
18,-0.05235988,-0.06981317,0.00000000,0.20593965,0.11767981,-0.16671371,0.00100000,0.00000000,0.00000000,16
19,-0.05235988,-0.03490658,-0.03490658,0.04903325,0.12748645,0.13729381,0.00200000,0.00100000,-0.00100000,14
20,-0.03490658,0.05235988,-0.05235988,0.08825984,0.00000000,-0.02941990,0.00000000,-0.00100000,-0.00100000,15
21,-0.03490658,0.03490658,-0.03490658,0.28439283,-0.11767981,-0.25497341,0.00000000,0.00000000,0.00000000,15
22,-0.03490658,-0.03490658,0.00000000,0.29419948,-0.18632633,-0.14709949,0.00100000,0.00100000,0.00000000,15
23,-0.03490658,-0.03490658,0.00000000,0.18632633,-0.20593965,-0.02941990,-0.00100000,0.00000000,0.00100000,16
24,-0.03490658,0.00000000,0.03490658,0.19613300,-0.14709974,-0.13729286,0.00000000,0.00100000,0.00000000,14
25,-0.03490658,-0.03490658,0.05235988,0.13729310,0.03922660,-0.12748622,0.00100000,0.00000000,-0.00100000,15
26,-0.03490658,-0.03490658,0.03490658,0.05883990,0.14709974,-0.06864643,0.00200000,-0.00100000,0.00000000,15
27,-0.03490658,0.00000000,-0.03490658,0.05883990,0.23535962,-0.01961327,0.00000000,0.00100000,-0.00100000,15
28,-0.03490658,0.01745329,-0.03490658,0.08825984,0.03922660,-0.01961327,0.00000000,0.00000000,0.00100000,15
29,-0.05235988,0.03490658,-0.01745329,0.14709974,-0.09806651,-0.19613265,0.00000000,0.00100000,0.00100000,15
30,-0.01745329,-0.03490658,0.03490658,0.23535962,0.00000000,-0.23535919,0.00000000,0.00000000,-0.00100000,15
31,-0.05235988,-0.08726646,-0.01745329,0.15690641,0.04903325,0.00000000,0.00000000,0.00100000,0.00000000,14
32,-0.03490658,0.00000000,-0.01745329,0.00000000,0.00980665,0.11767960,-0.00100000,0.00100000,0.00000000,16
33,-0.03490658,0.03490658,-0.03490658,0.18632633,-0.04903325,-0.06864643,0.00100000,0.00000000,0.00100000,14
34,-0.03490658,0.01745329,-0.01745329,0.24516625,-0.04903325,-0.13729286,0.00000000,0.00000000,0.00000000,15
35,-0.05235988,-0.03490658,0.00000000,0.21574630,-0.06864655,-0.20594024,-0.00200000,-0.00100000,-0.00100000,16
36,-0.05235988,-0.03490658,-0.01745329,0.10787315,0.00000000,-0.06864643,0.00000000,0.00000000,0.00000000,14
37,-0.01745329,-0.01745329,0.00000000,0.08825984,0.03922660,0.05884075,0.00000000,0.00000000,0.00000000,15
38,-0.05235988,0.03490658,-0.03490658,0.12748645,0.00980665,-0.05883980,0.00000000,-0.00100000,-0.00100000,15
39,-0.03490658,0.01745329,-0.01745329,0.23535962,-0.10787315,-0.24516582,0.00100000,0.00000000,0.00100000,15
40,-0.05235988,-0.05235988,0.01745329,0.29419948,-0.13729310,-0.34323310,0.00000000,0.00100000,0.00100000,15
41,-0.03490658,-0.08726646,0.00000000,0.20593965,0.01961330,0.07845306,0.00000000,0.00000000,-0.00100000,15
42,-0.03490658,0.00000000,0.00000000,0.01961330,-0.11767981,0.03922653,0.00000000,0.00000000,0.00200000,15
43,-0.03490658,0.01745329,0.00000000,0.10787315,0.01961330,-0.07845306,0.00100000,0.00000000,0.00000000,15
44,-0.01745329,0.01745329,-0.01745329,0.18632633,-0.00980665,-0.20594024,0.00000000,0.00000000,0.00100000,15
45,-0.03490658,-0.03490658,-0.01745329,0.24516625,0.01961330,-0.25497341,0.00100000,0.00000000,0.00000000,14
46,-0.01745329,-0.05235988,0.01745329,0.31381282,-0.12748645,-0.07845306,0.00000000,0.00000000,0.00000000,16
47,-0.05235988,-0.05235988,0.05235988,0.16671305,-0.07845321,-0.04903316,-0.00100000,0.00100000,-0.00100000,15
48,-0.03490658,-0.01745329,0.01745329,0.08825984,0.14709974,0.08825970,0.00100000,0.00000000,0.00000000,14
49,-0.01745329,0.00000000,-0.01745329,0.10787315,0.08825984,0.01961327,0.00200000,0.00000000,-0.00100000,16
50,-0.05235988,0.03490658,-0.05235988,0.09806651,-0.05883990,-0.11767960,0.00100000,0.00100000,-0.00100000,14
51,-0.03490658,-0.01745329,0.01745329,0.22555296,-0.17651968,-0.27458572,0.00200000,0.00100000,0.00000000,15
52,-0.01745329,-0.01745329,0.00000000,0.20593965,0.01961330,-0.11767960,0.00000000,-0.00100000,-0.00100000,16
53,-0.03490658,-0.03490658,-0.01745329,0.14709974,-0.01961330,-0.18632602,0.00000000,0.00000000,0.00000000,14
54,-0.03490658,-0.03490658,-0.01745329,0.07845321,-0.09806651,0.05884075,0.00100000,0.00100000,0.00100000,15
55,-0.01745329,0.00000000,0.05235988,0.07845321,-0.14709974,-0.10787297,-0.00100000,0.00100000,0.00000000,16
56,-0.05235988,-0.03490658,0.00000000,0.11767981,0.13729310,-0.08825970,0.00000000,0.00100000,0.00000000,14
57,-0.03490658,0.01745329,-0.03490658,0.05883990,0.09806651,-0.14709949,0.00100000,0.00100000,0.00000000,15
58,-0.01745329,-0.01745329,-0.01745329,0.13729310,0.02941995,-0.17651939,0.00000000,0.00100000,-0.00100000,15
59,-0.05235988,-0.03490658,-0.05235988,0.21574630,-0.03922660,-0.05883980,0.00000000,0.00100000,0.00000000,15
60,-0.03490658,0.00000000,0.00000000,0.02941995,-0.12748645,0.03922653,0.00100000,0.00000000,-0.00100000,15
61,-0.03490658,0.00000000,0.01745329,0.17651968,0.04903325,-0.18632602,0.00100000,0.00000000,-0.00100000,15
62,-0.05235988,-0.05235988,-0.01745329,0.16671305,0.11767981,-0.10787297,0.00000000,-0.00100000,-0.00100000,15
63,-0.05235988,0.00000000,-0.05235988,0.07845321,0.06864655,0.05884075,0.00000000,0.00000000,-0.00100000,16
64,-0.03490658,0.05235988,-0.05235988,0.12748645,-0.10787315,-0.01961327,0.00100000,0.00000000,0.00000000,14
65,-0.05235988,-0.01745329,-0.03490658,0.41187930,-0.17651968,-0.31381320,0.00000000,0.00000000,-0.00100000,15
66,0.00000000,-0.06981317,0.08726646,0.23535962,-0.19613300,0.01961327,0.00000000,0.00100000,0.00000000,15
67,-0.15707963,0.03490658,0.00000000,0.00980665,-0.19613300,-0.63743209,0.00200000,0.00100000,-0.00100000,15
68,0.06981317,0.01745329,0.03490658,0.20593965,0.41187930,-0.06864643,0.00100000,0.00100000,-0.00100000,15
69,-0.08726646,-0.03490658,-0.05235988,0.19613300,-0.11767981,-0.23535919,0.00100000,0.00000000,-0.00100000,15
70,-0.01745329,-0.03490658,-0.01745329,0.17651968,-0.11767981,-0.13729286,0.00100000,0.00000000,0.00000000,15
71,-0.03490658,-0.06981317,0.03490658,0.16671305,-0.16671305,-0.09806633,0.00100000,0.00100000,0.00000000,15
72,-0.05235988,0.05235988,-0.05235988,0.01961330,0.00980665,0.13729381,0.00000000,-0.00100000,0.00000000,15
73,0.00000000,0.01745329,0.05235988,0.24516625,-0.23535962,-0.34323310,0.00100000,0.00100000,-0.00100000,15
74,-0.05235988,-0.12217305,0.01745329,0.28439283,-0.00980665,-0.34323310,0.00000000,-0.00100000,0.00000000,14
75,-0.01745329,-0.06981317,0.01745329,-0.00980665,0.12748645,0.10787392,0.00100000,0.00000000,0.00000000,16
76,-0.03490658,0.00000000,-0.03490658,-0.04903325,0.11767981,0.12748622,0.00100000,0.00000000,0.00000000,15
77,-0.03490658,0.03490658,-0.03490658,0.14709974,-0.00980665,-0.01961327,0.00000000,0.00000000,0.00000000,14
78,-0.01745329,0.00000000,-0.01745329,0.29419948,-0.10787315,-0.19613265,0.00000000,0.00100000,-0.00100000,16
79,-0.05235988,-0.03490658,-0.03490658,0.39226600,-0.16671305,-0.21574687,0.00100000,0.00200000,-0.00100000,14
80,-0.03490658,-0.06981317,0.03490658,0.30400614,-0.23535962,-0.06864643,0.00000000,0.00000000,0.00000000,15
81,-0.05235988,-0.03490658,0.05235988,0.12748645,-0.03922660,0.11767960,0.00000000,0.00000000,0.00000000,16
82,-0.01745329,0.05235988,-0.01745329,0.09806651,0.03922660,0.16671276,-0.00100000,0.00100000,-0.00100000,14
83,-0.03490658,0.03490658,0.00000000,0.21574630,-0.14709974,-0.27458572,0.00000000,0.00000000,0.00000000,16
84,-0.03490658,-0.05235988,0.01745329,0.22555296,-0.06864655,-0.25497341,0.00000000,-0.00100000,-0.00100000,14
85,-0.01745329,-0.05235988,0.06981317,0.04903325,0.00980665,0.08825970,0.00100000,0.00000000,0.00000000,15
86,-0.03490658,0.01745329,0.00000000,0.04903325,0.17651968,0.10787392,0.00100000,-0.00100000,0.00000000,16
87,-0.03490658,0.00000000,0.01745329,0.13729310,-0.06864655,-0.24516582,0.00100000,0.00000000,0.00000000,14
88,-0.03490658,-0.03490658,0.01745329,0.08825984,0.00980665,-0.26478004,0.00000000,0.00100000,0.00000000,15
89,-0.03490658,-0.01745329,0.00000000,0.07845321,0.01961330,-0.18632602,0.00000000,-0.00100000,0.00200000,15
90,-0.03490658,-0.03490658,-0.03490658,0.13729310,0.10787315,-0.09806633,0.00100000,0.00000000,-0.00100000,15
91,-0.05235988,0.00000000,-0.05235988,0.06864655,-0.02941995,0.13729381,0.00100000,0.00000000,-0.00100000,15
92,-0.03490658,0.05235988,-0.01745329,0.15690641,-0.14709974,0.00000000,0.00100000,0.00000000,0.00000000,15
93,-0.01745329,0.01745329,0.01745329,0.27458620,-0.11767981,-0.28439235,0.00000000,0.00100000,0.00000000,15
94,-0.03490658,-0.05235988,0.00000000,0.29419948,-0.04903325,-0.25497341,-0.00100000,0.00200000,0.00000000,14
95,-0.05235988,-0.06981317,0.00000000,0.21574630,-0.13729310,-0.13729286,0.00100000,0.00000000,0.00100000,16
96,-0.05235988,-0.03490658,-0.01745329,0.05883990,0.00980665,0.06864643,0.00100000,0.00000000,0.00100000,15
97,-0.03490658,0.00000000,-0.01745329,0.03922660,0.04903325,0.09806633,0.00000000,0.00000000,-0.00100000,14
98,-0.05235988,0.06981317,-0.03490658,0.07845321,-0.02941995,-0.00980663,-0.00100000,0.00100000,0.00000000,16
99,-0.01745329,0.03490658,-0.01745329,0.31381282,-0.07845321,-0.38245868,0.00000000,0.00200000,0.00000000,14
100,-0.03490658,-0.10471976,0.01745329,0.43149261,-0.16671305,-0.30400657,0.00100000,0.00000000,-0.00100000,15
101,-0.05235988,-0.06981317,0.03490658,0.07845321,-0.14709974,0.14709949,0.00000000,0.00100000,0.00000000,16
102,-0.01745329,0.03490658,0.01745329,0.03922660,0.00000000,0.12748622,0.00000000,0.00000000,-0.00100000,14
103,-0.05235988,0.00000000,-0.03490658,0.19613300,0.05883990,-0.16671371,0.00100000,0.00100000,0.00000000,16
104,-0.05235988,0.01745329,-0.03490658,0.07845321,-0.06864655,-0.10787297,0.00000000,0.00100000,-0.00100000,15
105,-0.03490658,-0.01745329,0.01745329,0.20593965,-0.09806651,-0.21574687,0.00000000,-0.00100000,0.00000000,14
106,-0.03490658,-0.05235988,0.00000000,0.16671305,0.06864655,-0.20594024,0.00200000,0.00000000,-0.00100000,16
107,0.00000000,-0.05235988,0.00000000,0.18632633,-0.02941995,-0.08825970,0.00100000,0.00100000,0.00000000,14
108,-0.06981317,-0.03490658,-0.05235988,0.15690641,-0.15690641,0.00000000,0.00100000,0.00000000,0.00100000,15
109,0.00000000,-0.01745329,0.06981317,0.15690641,-0.23535962,-0.00980663,0.00000000,0.00000000,-0.00200000,16
110,-0.05235988,0.00000000,0.00000000,0.11767981,0.06864655,-0.05883980,0.00100000,0.00000000,0.00000000,14
111,-0.01745329,0.00000000,0.03490658,0.11767981,0.02941995,-0.16671371,0.00000000,0.00100000,-0.00100000,15
112,-0.03490658,-0.03490658,-0.01745329,0.19613300,0.02941995,-0.27458572,0.00000000,0.00200000,-0.00100000,16
113,-0.01745329,-0.03490658,0.01745329,0.11767981,-0.04903325,-0.05883980,0.00100000,0.00000000,-0.00100000,14
114,-0.03490658,-0.01745329,0.00000000,0.11767981,-0.07845321,-0.14709949,0.00100000,0.00100000,0.00000000,15
115,-0.01745329,-0.05235988,0.03490658,0.12748645,0.01961330,-0.06864643,0.00200000,0.00000000,0.00000000,16
116,-0.01745329,-0.01745329,0.00000000,0.01961330,0.12748645,-0.04903316,0.00000000,0.00100000,-0.00100000,14
117,-0.03490658,0.00000000,-0.03490658,0.08825984,0.14709974,-0.04903316,-0.00100000,0.00000000,0.00000000,15
118,-0.03490658,-0.01745329,-0.05235988,0.22555296,-0.12748645,-0.13729286,0.00000000,0.00000000,0.00000000,15
119,-0.03490658,-0.03490658,0.01745329,0.20593965,-0.20593965,-0.10787297,0.00100000,0.00200000,0.00000000,15
120,-0.01745329,-0.03490658,0.05235988,0.16671305,0.05883990,-0.21574687,-0.00100000,0.00000000,0.00000000,16
121,-0.03490658,-0.08726646,0.00000000,0.19613300,0.18632633,-0.03922653,0.00200000,0.00200000,-0.00200000,14
122,-0.05235988,0.01745329,-0.08726646,0.04903325,0.02941995,0.27458572,0.00100000,0.00000000,-0.00100000,15
123,-0.01745329,0.08726646,-0.03490658,0.21574630,-0.34323275,-0.10787297,-0.00100000,0.00000000,0.00000000,16
124,-0.06981317,-0.03490658,0.05235988,0.40207266,-0.28439283,-0.38245868,0.00000000,0.00000000,-0.00100000,15
125,-0.05235988,-0.08726646,0.03490658,0.15690641,0.12748645,0.00000000,0.00000000,0.00000000,0.00000000,14
126,-0.03490658,0.01745329,-0.03490658,-0.02941995,0.10787315,0.19613265,0.00000000,0.00000000,-0.00200000,16
127,-0.03490658,0.06981317,0.00000000,0.13729310,-0.19613300,-0.17651939,0.00000000,0.00000000,-0.00100000,14
128,-0.01745329,0.00000000,0.00000000,0.35303938,-0.07845321,-0.42168617,-0.00100000,0.00100000,0.00000000,15
129,-0.05235988,-0.10471976,0.03490658,0.22555296,-0.12748645,-0.25497341,0.00100000,0.00100000,0.00100000,16
130,-0.06981317,-0.06981317,-0.01745329,0.01961330,0.09806651,0.22555255,0.00000000,-0.00100000,0.00000000,14
131,-0.01745329,0.06981317,0.00000000,-0.06864655,-0.03922660,0.11767960,-0.00100000,0.00100000,-0.00100000,15
132,-0.01745329,0.08726646,-0.01745329,0.23535962,-0.04903325,-0.32361984,0.00100000,0.00100000,-0.00100000,16
133,-0.05235988,-0.08726646,-0.01745329,0.35303938,-0.04903325,-0.53936576,-0.00100000,0.00100000,0.00000000,15
134,-0.03490658,-0.10471976,-0.01745329,0.05883990,0.01961330,0.01961327,0.00000000,0.00000000,0.00000000,14
135,-0.03490658,0.00000000,0.00000000,-0.11767981,0.06864655,0.24516582,0.00100000,0.00100000,0.00100000,16
136,-0.03490658,0.05235988,-0.03490658,0.06864655,0.05883990,-0.00980663,0.00000000,0.00100000,-0.00100000,14
137,-0.03490658,0.00000000,-0.03490658,0.24516625,-0.04903325,-0.30400657,0.00100000,0.00000000,0.00000000,16
138,-0.05235988,-0.06981317,-0.01745329,0.27458620,-0.16671305,-0.22555255,0.00000000,0.00100000,-0.00100000,15
139,-0.06981317,-0.03490658,-0.01745329,0.19613300,-0.06864655,-0.06864643,0.00000000,0.00000000,0.00100000,14
140,-0.01745329,-0.01745329,0.00000000,0.21574630,-0.02941995,-0.11767960,0.00000000,0.00000000,0.00000000,16
141,-0.03490658,-0.03490658,0.00000000,0.26477956,-0.10787315,-0.02941990,0.00100000,-0.00100000,0.00000000,15
142,-0.01745329,0.00000000,0.00000000,0.17651968,-0.19613300,0.10787392,0.00000000,-0.00100000,-0.00100000,14
143,0.00000000,0.03490658,0.05235988,0.21574630,-0.12748645,-0.02941990,-0.00100000,0.00000000,0.00000000,16
144,-0.03490658,-0.01745329,0.01745329,0.19613300,0.09806651,-0.15690612,0.00000000,-0.00100000,0.00100000,15
145,-0.03490658,-0.01745329,0.00000000,0.17651968,0.07845321,-0.10787297,0.00000000,-0.00100000,0.00000000,14
146,-0.03490658,-0.01745329,-0.03490658,0.11767981,0.06864655,-0.02941990,0.00100000,0.00000000,-0.00100000,16
147,-0.03490658,-0.03490658,0.01745329,0.09806651,-0.04903325,-0.02941990,0.00000000,-0.00100000,0.00100000,15
148,-0.03490658,0.00000000,0.03490658,0.03922660,0.04903325,0.05884075,0.00100000,0.00000000,0.00000000,14
149,-0.03490658,0.00000000,0.01745329,0.18632633,0.19613300,-0.15690612,0.00100000,0.00000000,0.00000000,16
150,-0.05235988,-0.03490658,-0.05235988,0.14709974,0.04903325,-0.20594024,0.00000000,0.00000000,0.00000000,14
151,-0.03490658,-0.05235988,-0.01745329,0.12748645,-0.12748645,-0.13729286,0.00000000,0.00000000,0.00000000,15
152,-0.03490658,-0.01745329,0.01745329,0.09806651,-0.06864655,0.00980663,0.00100000,0.00100000,0.00000000,16
153,-0.03490658,0.03490658,-0.01745329,0.07845321,-0.00980665,0.05884075,0.00100000,0.00000000,-0.00100000,14
154,-0.03490658,0.01745329,0.00000000,0.22555296,-0.19613300,-0.26478004,0.00100000,0.00100000,0.00100000,15
155,-0.06981317,-0.03490658,-0.01745329,0.22555296,-0.04903325,-0.17651939,0.00100000,-0.00100000,0.00000000,16
156,-0.01745329,-0.03490658,0.03490658,0.07845321,0.00980665,-0.15690612,0.00100000,0.00000000,-0.00100000,14
157,-0.06981317,-0.05235988,-0.05235988,0.09806651,0.15690641,-0.19613265,0.00000000,0.00100000,0.00000000,16
158,-0.05235988,0.00000000,-0.08726646,0.05883990,0.13729310,0.15690708,0.00100000,0.00100000,-0.00200000,15
159,-0.01745329,0.06981317,-0.05235988,0.38245937,-0.32361946,-0.25497341,0.00100000,0.00000000,0.00000000,14
160,-0.05235988,-0.06981317,-0.01745329,0.50013918,-0.40207266,-0.25497341,0.00000000,-0.00100000,-0.00200000,16
161,-0.03490658,-0.06981317,0.12217305,0.23535962,-0.29419948,0.02941990,0.00200000,0.00000000,0.00000000,15
162,-0.03490658,-0.03490658,0.05235988,0.16671305,0.19613300,-0.02941990,-0.00100000,-0.00100000,0.00000000,15
163,-0.03490658,-0.01745329,-0.03490658,0.02941995,0.25497291,0.12748622,0.00200000,0.00100000,0.00000000,15
164,-0.01745329,0.08726646,-0.05235988,0.03922660,-0.04903325,-0.07845306,0.00000000,0.00100000,0.00000000,15
165,-0.03490658,0.00000000,-0.01745329,0.45110592,-0.18632633,-0.35303974,0.00200000,0.00000000,-0.00200000,15
166,-0.05235988,-0.10471976,0.05235988,0.32361946,-0.21574630,-0.07845306,0.00000000,-0.00100000,0.00000000,15
167,-0.03490658,-0.03490658,0.06981317,-0.05883990,0.10787315,0.20594024,0.00100000,0.00100000,-0.00100000,15
168,-0.03490658,0.05235988,0.00000000,-0.02941995,0.25497291,-0.01961327,0.00000000,0.00100000,-0.00100000,15
169,-0.01745329,0.00000000,-0.03490658,0.22555296,0.07845321,-0.28439235,0.00000000,0.00000000,0.00000000,15
170,-0.05235988,-0.01745329,-0.05235988,0.21574630,-0.22555296,-0.14709949,0.00000000,0.00000000,0.00000000,15
171,-0.01745329,-0.03490658,0.06981317,0.10787315,-0.30400614,-0.11767960,0.00000000,0.00000000,0.00000000,14
172,-0.03490658,-0.01745329,0.05235988,0.06864655,0.05883990,-0.19613265,0.00000000,0.00100000,-0.00100000,16
173,-0.03490658,-0.03490658,-0.01745329,0.06864655,0.19613300,-0.22555255,0.00000000,0.00100000,0.00100000,15
174,-0.01745329,-0.03490658,-0.05235988,0.11767981,0.00000000,-0.04903316,-0.00200000,0.00000000,-0.00100000,15
175,-0.03490658,0.00000000,-0.01745329,0.13729310,-0.24516625,-0.04903316,0.00000000,0.00000000,0.00000000,15
176,-0.03490658,-0.01745329,0.03490658,0.21574630,-0.10787315,-0.12748622,0.00000000,-0.00100000,0.00000000,15
177,-0.01745329,-0.05235988,0.01745329,0.16671305,0.14709974,-0.15690612,0.00100000,-0.00100000,-0.00100000,15
178,-0.01745329,-0.03490658,-0.03490658,0.10787315,0.16671305,0.04903316,0.00000000,0.00000000,0.00100000,15
179,-0.03490658,0.05235988,-0.06981317,0.14709974,-0.07845321,0.04903316,0.00000000,0.00100000,0.00000000,15
180,-0.05235988,0.00000000,-0.01745329,0.31381282,-0.20593965,-0.11767960,0.00000000,0.00000000,0.00000000,15
181,-0.01745329,-0.03490658,0.05235988,0.27458620,-0.15690641,-0.15690612,0.00000000,0.00000000,-0.00100000,15
182,-0.03490658,-0.05235988,0.01745329,0.19613300,0.07845321,-0.03922653,0.00100000,0.00000000,-0.00100000,15
183,-0.05235988,0.00000000,-0.01745329,0.08825984,0.05883990,0.13729381,0.00000000,0.00000000,-0.00100000,15
184,-0.01745329,0.01745329,0.01745329,0.19613300,-0.06864655,-0.03922653,0.00000000,0.00000000,-0.00100000,15
185,-0.05235988,0.00000000,-0.01745329,0.15690641,-0.01961330,-0.15690612,0.00000000,0.00100000,0.00100000,15
186,-0.03490658,0.01745329,-0.01745329,0.15690641,-0.08825984,-0.14709949,0.00100000,0.00000000,0.00000000,15
187,-0.05235988,-0.01745329,0.00000000,0.27458620,-0.20593965,-0.16671371,0.00000000,-0.00100000,-0.00100000,15
188,-0.03490658,-0.01745329,0.05235988,0.10787315,-0.15690641,-0.08825970,0.00000000,0.00100000,0.00100000,15
189,-0.01745329,-0.01745329,0.03490658,0.05883990,0.08825984,-0.23535919,0.00100000,0.00000000,-0.00100000,15
190,-0.03490658,-0.05235988,-0.01745329,0.13729310,0.19613300,-0.10787297,0.00000000,0.00000000,0.00000000,15
191,-0.05235988,-0.01745329,-0.06981317,0.00980665,-0.01961330,0.09806633,0.00000000,0.00000000,-0.00100000,16
192,-0.01745329,0.05235988,0.01745329,0.13729310,-0.25497291,-0.07845306,0.00100000,0.00100000,0.00000000,14
193,-0.03490658,0.00000000,0.03490658,0.35303938,-0.11767981,-0.35303974,0.00000000,0.00000000,0.00000000,15
194,-0.06981317,-0.06981317,0.00000000,0.29419948,0.00000000,-0.34323310,-0.00100000,0.00000000,0.00000000,16
195,-0.03490658,-0.10471976,0.03490658,0.08825984,0.09806651,0.04903316,0.00100000,0.00000000,0.00000000,14
196,-0.03490658,0.00000000,-0.03490658,-0.05883990,0.17651968,0.33342647,0.00000000,0.00100000,-0.00100000,15
197,-0.01745329,0.08726646,-0.05235988,0.10787315,0.02941995,-0.04903316,0.00100000,-0.00100000,0.00000000,15
198,-0.03490658,0.00000000,-0.03490658,0.40207266,-0.19613300,-0.36284637,0.00100000,-0.00100000,-0.00100000,15
199,-0.05235988,-0.05235988,0.01745329,0.36284604,-0.19613300,-0.20594024,0.00100000,0.00000000,-0.00100000,15
200,-0.03490658,-0.06981317,0.03490658,0.15690641,-0.02941995,-0.03922653,0.00000000,0.00100000,-0.00100000,15
201,-0.03490658,0.00000000,-0.01745329,0.12748645,0.00980665,0.00000000,0.00000000,0.00000000,0.00000000,15
202,-0.01745329,0.01745329,-0.01745329,0.19613300,-0.07845321,-0.21574687,0.00000000,0.00000000,0.00100000,15
203,-0.03490658,-0.03490658,0.00000000,0.19613300,-0.14709974,0.00000000,0.00000000,-0.00100000,-0.00100000,15
204,-0.01745329,0.01745329,0.06981317,0.09806651,-0.12748645,0.00980663,0.00200000,0.00200000,-0.00100000,15
205,0.00000000,-0.01745329,0.06981317,0.17651968,0.08825984,-0.17651939,0.00000000,0.00100000,-0.00100000,15
206,-0.05235988,-0.01745329,-0.01745329,0.05883990,0.27458620,0.00980663,0.00000000,-0.00200000,-0.00100000,15
207,-0.03490658,0.01745329,-0.01745329,0.08825984,0.06864655,-0.10787297,0.00000000,0.00000000,-0.00200000,15
208,-0.06981317,-0.03490658,-0.03490658,0.13729310,-0.02941995,-0.16671371,0.00200000,0.00000000,-0.00100000,15
209,-0.03490658,-0.03490658,0.00000000,0.01961330,-0.03922660,0.00980663,0.00100000,0.00200000,0.00000000,15
210,-0.03490658,0.03490658,-0.01745329,0.00000000,0.00980665,0.00000000,0.00100000,0.00000000,0.00000000,15
211,-0.03490658,0.03490658,-0.05235988,0.15690641,-0.05883990,-0.27458572,0.00000000,0.00100000,0.00100000,15
212,-0.01745329,-0.01745329,-0.03490658,0.24516625,-0.11767981,-0.39226627,0.00100000,0.00000000,-0.00200000,15
213,-0.05235988,-0.08726646,-0.01745329,0.29419948,-0.20593965,-0.33342552,0.00000000,0.00100000,0.00000000,15
214,-0.03490658,-0.06981317,0.03490658,0.09806651,-0.12748645,0.03922653,0.00000000,0.00000000,0.00000000,16
215,0.00000000,-0.03490658,0.03490658,0.12748645,0.12748645,0.09806633,0.00000000,0.00100000,-0.00100000,14
216,-0.03490658,0.00000000,-0.03490658,0.04903325,0.17651968,0.14709949,0.00000000,-0.00100000,-0.00100000,15
217,-0.01745329,0.03490658,-0.03490658,0.19613300,0.01961330,0.01961327,-0.00200000,0.00100000,0.00000000,15
218,-0.03490658,0.01745329,-0.03490658,0.41187930,-0.15690641,-0.13729286,0.00100000,0.00000000,0.00000000,15
219,-0.03490658,-0.03490658,0.00000000,0.41187930,-0.17651968,-0.16671371,0.00000000,0.00000000,-0.00200000,15
220,-0.05235988,-0.05235988,0.03490658,0.25497291,-0.17651968,-0.00980663,0.00000000,0.00100000,-0.00100000,15
221,-0.03490658,-0.01745329,0.03490658,0.18632633,0.00000000,0.14709949,0.00100000,0.00000000,0.00000000,15
222,-0.03490658,0.01745329,0.00000000,0.01961330,0.07845321,0.09806633,0.00000000,0.00000000,0.00000000,15
223,-0.03490658,0.08726646,-0.01745329,0.05883990,0.00000000,0.01961327,0.00000000,-0.00100000,-0.00200000,15
224,-0.03490658,0.01745329,0.01745329,0.27458620,-0.07845321,-0.43149280,0.00100000,0.00100000,0.00000000,15
225,-0.06981317,-0.06981317,-0.01745329,0.20593965,-0.00980665,-0.36284637,0.00000000,-0.00100000,-0.00100000,15
226,-0.01745329,-0.06981317,0.01745329,0.03922660,0.00000000,-0.01961327,0.00100000,0.00000000,0.00000000,15
227,-0.05235988,0.01745329,-0.01745329,0.03922660,-0.01961330,0.02941990,0.00000000,0.00000000,0.00000000,15
228,-0.03490658,0.01745329,0.00000000,0.14709974,-0.05883990,-0.10787297,0.00000000,0.00000000,0.00100000,14
229,-0.03490658,0.00000000,0.01745329,0.09806651,-0.09806651,-0.10787297,0.00100000,0.00100000,-0.00200000,16
230,-0.03490658,0.01745329,0.03490658,0.08825984,0.06864655,-0.20594024,-0.00100000,0.00100000,-0.00100000,15
231,-0.01745329,-0.05235988,0.00000000,0.19613300,0.12748645,-0.32361984,0.00100000,0.00000000,-0.00200000,15
232,-0.05235988,-0.05235988,-0.05235988,0.09806651,0.01961330,-0.07845306,0.00100000,0.00000000,-0.00100000,15
233,-0.03490658,0.00000000,-0.03490658,0.02941995,-0.14709974,0.09806633,0.00100000,0.00100000,0.00000000,15
234,0.00000000,0.01745329,0.05235988,0.11767981,-0.10787315,-0.10787297,0.00000000,-0.00100000,0.00000000,15
235,-0.05235988,-0.01745329,0.00000000,0.20593965,0.07845321,-0.16671371,0.00100000,0.00000000,0.00100000,15
236,-0.03490658,-0.03490658,-0.01745329,0.17651968,-0.00980665,-0.15690612,0.00100000,0.00000000,0.00000000,15
237,-0.03490658,-0.01745329,-0.01745329,0.10787315,-0.04903325,0.00980663,0.00000000,0.00000000,0.00000000,15
238,-0.03490658,-0.01745329,0.00000000,0.13729310,0.00000000,0.00980663,0.00000000,0.00000000,0.00000000,15
239,-0.03490658,0.00000000,0.00000000,0.19613300,-0.01961330,-0.01961327,-0.00100000,0.00000000,0.00000000,14
240,-0.05235988,-0.01745329,0.00000000,0.15690641,-0.07845321,-0.06864643,0.00000000,-0.00100000,0.00100000,16
241,-0.01745329,0.00000000,0.03490658,0.12748645,0.01961330,-0.12748622,0.00000000,-0.00100000,-0.00100000,15
242,-0.03490658,0.00000000,-0.03490658,0.16671305,0.12748645,-0.10787297,0.00000000,-0.00100000,0.00000000,14
243,-0.05235988,-0.01745329,-0.03490658,0.11767981,-0.16671305,-0.12748622,0.00200000,-0.00100000,0.00000000,16
244,-0.05235988,-0.01745329,0.03490658,0.20593965,-0.20593965,-0.11767960,0.00100000,0.00100000,0.00100000,15
245,-0.03490658,-0.03490658,0.05235988,0.16671305,0.01961330,-0.11767960,0.00000000,0.00100000,0.00000000,14
246,-0.03490658,-0.03490658,0.01745329,-0.01961330,0.09806651,0.10787392,0.00000000,0.00000000,0.00000000,16
247,-0.01745329,0.08726646,-0.03490658,0.03922660,0.06864655,-0.03922653,0.00000000,0.00200000,0.00000000,15
248,-0.03490658,0.01745329,-0.01745329,0.35303938,-0.27458620,-0.40207290,0.00200000,0.00200000,-0.00100000,15
249,-0.06981317,-0.08726646,0.01745329,0.22555296,-0.22555296,-0.16671371,0.00000000,0.00100000,0.00000000,15
250,-0.01745329,-0.05235988,0.06981317,0.05883990,-0.00980665,0.03922653,0.00100000,0.00100000,0.00000000,15
251,-0.05235988,0.00000000,0.00000000,0.02941995,0.14709974,0.04903316,0.00100000,0.00000000,0.00000000,15
252,-0.01745329,0.03490658,-0.01745329,0.10787315,0.06864655,-0.10787297,0.00000000,0.00000000,-0.00100000,15
253,-0.06981317,0.01745329,-0.06981317,0.16671305,-0.06864655,-0.25497341,0.00100000,0.00000000,0.00000000,14
254,0.00000000,-0.05235988,0.03490658,0.27458620,-0.10787315,-0.28439235,0.00000000,0.00100000,0.00000000,16
255,-0.06981317,-0.10471976,-0.01745329,0.16671305,0.00000000,0.01961327,0.00100000,0.00000000,0.00000000,15
256,-0.03490658,-0.01745329,0.00000000,-0.02941995,-0.08825984,0.30400657,0.00000000,0.00000000,-0.00100000,14
257,-0.01745329,0.10471976,0.01745329,0.05883990,-0.08825984,-0.13729286,0.00000000,0.00000000,0.00000000,16
258,-0.05235988,0.00000000,-0.01745329,0.36284604,-0.02941995,-0.52955913,0.00100000,0.00100000,0.00000000,15
259,-0.05235988,-0.08726646,-0.01745329,0.12748645,-0.06864655,-0.25497341,0.00000000,0.00000000,-0.00200000,14
260,-0.01745329,-0.06981317,0.01745329,0.04903325,0.00980665,0.04903316,0.00100000,-0.00100000,0.00000000,16
261,-0.03490658,0.05235988,-0.03490658,-0.04903325,-0.03922660,0.19613265,0.00000000,-0.00200000,-0.00100000,15
262,0.00000000,0.08726646,0.01745329,0.19613300,-0.10787315,-0.16671371,0.00000000,0.00000000,-0.00100000,14
263,-0.03490658,-0.06981317,0.03490658,0.36284604,-0.18632633,-0.50013923,0.00000000,0.00000000,-0.00100000,16
264,-0.05235988,-0.13962633,0.05235988,0.05883990,0.04903325,-0.04903316,0.00100000,0.00000000,0.00000000,15
265,-0.01745329,0.00000000,0.00000000,-0.16671305,0.25497291,0.34323215,0.00000000,0.00000000,0.00000000,15
266,-0.03490658,0.06981317,-0.05235988,0.03922660,0.10787315,0.10787392,0.00000000,0.00000000,-0.00100000,15
267,-0.03490658,0.03490658,-0.03490658,0.20593965,-0.23535962,-0.29419898,0.00000000,0.00200000,0.00000000,14
268,-0.03490658,-0.05235988,0.03490658,0.28439283,-0.13729310,-0.39226627,-0.00100000,0.00000000,-0.00100000,16
269,-0.05235988,-0.10471976,0.03490658,0.17651968,0.00000000,-0.18632602,0.00000000,-0.00100000,0.00000000,15
270,-0.03490658,-0.03490658,-0.01745329,0.04903325,0.17651968,0.17651939,0.00000000,0.00000000,0.00000000,14
271,-0.03490658,0.03490658,-0.01745329,0.00000000,0.03922660,0.12748622,0.00000000,-0.00100000,0.00000000,16
272,-0.01745329,0.05235988,-0.01745329,0.19613300,-0.05883990,-0.17651939,0.00000000,0.00000000,0.00000000,14
273,-0.05235988,-0.05235988,-0.01745329,0.30400614,-0.10787315,-0.48052597,0.00100000,-0.00200000,0.00000000,15
274,-0.05235988,-0.08726646,0.00000000,0.08825984,-0.00980665,-0.10787297,0.00300000,0.00000000,-0.00100000,16
275,-0.03490658,-0.01745329,-0.03490658,0.00000000,0.05883990,0.04903316,0.00000000,0.00100000,0.00000000,14
276,-0.01745329,0.01745329,-0.05235988,0.11767981,-0.05883990,0.01961327,-0.00100000,-0.00100000,0.00100000,15
277,-0.01745329,0.03490658,0.00000000,0.18632633,-0.29419948,-0.10787297,0.00100000,0.00100000,0.00000000,16
278,-0.03490658,0.01745329,0.01745329,0.23535962,-0.20593965,-0.25497341,0.00000000,0.00000000,0.00000000,14
279,-0.03490658,-0.01745329,0.01745329,0.27458620,0.00000000,-0.24516582,0.00000000,0.00000000,0.00000000,15
280,-0.03490658,-0.08726646,0.01745329,0.17651968,-0.02941995,-0.14709949,0.00000000,0.00000000,-0.00100000,16
281,-0.03490658,-0.03490658,-0.01745329,0.02941995,0.02941995,0.19613265,0.00100000,0.00000000,-0.00100000,14
282,-0.01745329,0.03490658,-0.01745329,0.11767981,-0.00980665,0.11767960,0.00000000,0.00000000,-0.00100000,15
283,-0.05235988,0.03490658,0.00000000,0.17651968,-0.09806651,-0.09806633,0.00000000,0.00000000,0.00000000,16
284,-0.03490658,0.00000000,0.01745329,0.15690641,-0.00980665,-0.25497341,0.00100000,0.00000000,-0.00100000,14
285,-0.03490658,-0.03490658,0.00000000,0.15690641,0.10787315,-0.22555255,0.00000000,0.00100000,-0.00100000,16
286,-0.03490658,-0.05235988,-0.01745329,0.08825984,0.07845321,-0.05883980,0.00100000,-0.00100000,0.00000000,14
287,-0.03490658,-0.01745329,0.00000000,0.01961330,-0.05883990,0.07845306,0.00100000,0.00000000,-0.00100000,15
288,-0.03490658,0.00000000,-0.01745329,0.01961330,0.03922660,-0.00980663,0.00200000,0.00100000,0.00000000,16
289,-0.03490658,0.01745329,-0.01745329,0.06864655,-0.07845321,-0.12748622,0.00100000,0.00000000,-0.00100000,14
290,-0.05235988,-0.03490658,0.00000000,0.04903325,-0.00980665,-0.22555255,0.00000000,0.00100000,-0.00100000,15
291,-0.03490658,0.00000000,-0.01745329,0.06864655,0.00000000,-0.02941990,0.00100000,0.00000000,0.00000000,16
292,-0.03490658,0.01745329,-0.03490658,0.12748645,-0.10787315,-0.13729286,0.00000000,0.00000000,0.00000000,14
293,-0.03490658,0.01745329,0.00000000,0.22555296,-0.25497291,-0.30400657,-0.00100000,0.00000000,0.00000000,15
294,-0.03490658,-0.06981317,0.03490658,0.25497291,-0.05883990,-0.29419898,0.00100000,0.00000000,-0.00100000,15
295,-0.01745329,-0.10471976,0.01745329,0.11767981,0.11767981,0.00000000,0.00100000,0.00000000,0.00000000,14
296,-0.03490658,-0.01745329,-0.05235988,0.01961330,0.03922660,0.26477909,0.00200000,0.00000000,0.00000000,15
297,-0.01745329,0.05235988,0.00000000,0.11767981,-0.20593965,0.07845306,0.00100000,0.00000000,-0.00100000,15
298,-0.03490658,0.00000000,0.03490658,0.24516625,-0.13729310,-0.10787297,0.00100000,0.00000000,0.00000000,15
299,-0.05235988,-0.01745329,0.06981317,0.17651968,0.01961330,-0.21574687,0.00000000,0.00100000,0.00000000,15
300,-0.05235988,-0.06981317,-0.05235988,0.10787315,0.29419948,-0.09806633,0.00000000,0.00000000,-0.00100000,15
301,-0.05235988,0.00000000,-0.06981317,-0.06864655,0.00980665,0.13729381,0.00100000,0.00000000,0.00000000,15
302,-0.01745329,0.05235988,-0.01745329,0.14709974,-0.14709974,-0.22555255,0.00000000,0.00000000,0.00000000,16
303,-0.03490658,-0.06981317,0.01745329,0.30400614,-0.20593965,-0.25497341,0.00200000,0.00000000,0.00000000,14
304,-0.05235988,-0.05235988,0.03490658,0.00980665,-0.08825984,0.17651939,0.00000000,0.00100000,0.00000000,15
305,-0.03490658,0.05235988,-0.01745329,-0.03922660,-0.01961330,0.01961327,0.00000000,0.00000000,0.00000000,16
306,-0.03490658,0.05235988,-0.03490658,0.16671305,-0.04903325,-0.46091270,0.00000000,0.00100000,-0.00100000,14
307,-0.03490658,-0.05235988,-0.05235988,0.28439283,-0.06864655,-0.37265300,0.00000000,-0.00100000,0.00000000,15
308,-0.03490658,-0.10471976,0.00000000,0.16671305,-0.23535962,-0.10787297,0.00100000,0.00100000,0.00000000,16
309,-0.03490658,-0.03490658,0.01745329,0.02941995,-0.14709974,0.22555255,0.00000000,0.00100000,0.00100000,14
310,0.00000000,0.00000000,0.03490658,0.04903325,0.05883990,0.09806633,0.00100000,0.00000000,-0.00100000,15
311,-0.05235988,0.03490658,-0.01745329,0.13729310,0.05883990,-0.15690612,0.00100000,0.00000000,0.00000000,15
312,-0.03490658,-0.01745329,-0.03490658,0.20593965,0.02941995,-0.25497341,0.00000000,0.00000000,0.00000000,15
313,-0.01745329,-0.03490658,-0.03490658,0.11767981,-0.05883990,-0.09806633,0.00100000,0.00000000,0.00000000,15
314,-0.03490658,-0.03490658,-0.01745329,0.17651968,-0.15690641,-0.05883980,0.00300000,-0.00100000,-0.00100000,15
315,-0.03490658,-0.05235988,0.03490658,0.17651968,-0.20593965,0.00980663,0.00100000,0.00000000,0.00000000,15
316,-0.03490658,0.01745329,0.06981317,-0.02941995,-0.07845321,0.18632698,0.00000000,0.00000000,0.00000000,15
317,-0.01745329,0.05235988,0.00000000,0.17651968,0.18632633,-0.05883980,0.00000000,0.00000000,0.00100000,15
318,-0.06981317,-0.03490658,-0.03490658,0.24516625,-0.03922660,-0.31381320,0.00000000,0.00100000,0.00000000,15
319,-0.05235988,-0.05235988,0.01745329,0.09806651,-0.07845321,0.00000000,0.00000000,0.00000000,0.00100000,15
320,-0.03490658,0.03490658,0.01745329,-0.00980665,0.05883990,0.12748622,0.00000000,0.00000000,0.00000000,15
321,-0.05235988,0.06981317,-0.01745329,0.11767981,0.11767981,-0.14709949,0.00000000,-0.00100000,-0.00100000,15
322,-0.05235988,-0.01745329,-0.03490658,0.24516625,-0.06864655,-0.40207290,0.00000000,0.00000000,0.00000000,16
323,-0.03490658,-0.06981317,0.01745329,0.12748645,-0.17651968,-0.19613265,0.00100000,0.00000000,-0.00100000,14
324,-0.05235988,-0.05235988,0.01745329,0.01961330,-0.04903325,0.09806633,0.00100000,0.00000000,0.00000000,15
325,-0.01745329,0.05235988,0.01745329,-0.05883990,0.03922660,0.08825970,-0.00100000,0.00200000,0.00100000,16
326,-0.01745329,0.05235988,-0.01745329,0.14709974,0.11767981,-0.31381320,0.00200000,0.00000000,-0.00100000,14
327,-0.03490658,-0.08726646,-0.03490658,0.33342611,0.00000000,-0.34323310,0.00000000,0.00000000,0.00000000,15
328,-0.05235988,-0.10471976,-0.01745329,0.05883990,-0.17651968,0.10787392,0.00100000,-0.00100000,-0.00100000,15
329,-0.01745329,0.01745329,0.05235988,-0.06864655,-0.08825984,0.12748622,0.00000000,0.00000000,0.00000000,14
330,-0.01745329,0.01745329,0.03490658,0.14709974,0.11767981,-0.29419898,0.00000000,0.00000000,-0.00100000,15
331,-0.05235988,-0.05235988,-0.08726646,0.17651968,0.21574630,-0.27458572,0.00100000,-0.00100000,0.00000000,16
332,-0.03490658,-0.05235988,-0.05235988,0.08825984,-0.09806651,0.00000000,-0.00100000,0.00200000,0.00100000,14
333,-0.03490658,-0.01745329,-0.01745329,0.04903325,-0.27458620,0.09806633,0.00100000,0.00100000,0.00000000,15
334,-0.01745329,0.05235988,0.01745329,0.11767981,-0.23535962,-0.02941990,0.00000000,0.00100000,-0.00100000,16
335,-0.03490658,0.00000000,0.01745329,0.30400614,-0.19613300,-0.47071933,0.00000000,0.00100000,0.00100000,14
336,-0.05235988,-0.10471976,0.03490658,0.25497291,0.00980665,-0.32361984,0.00000000,0.00000000,-0.00100000,15
337,-0.01745329,-0.06981317,0.00000000,0.04903325,0.15690641,0.12748622,0.00000000,0.00000000,0.00100000,16
338,-0.03490658,0.00000000,-0.03490658,0.05883990,0.02941995,0.17651939,0.00000000,-0.00100000,0.00000000,14
339,-0.01745329,0.03490658,0.00000000,0.14709974,-0.16671305,-0.04903316,0.00000000,0.00000000,-0.00100000,16
340,-0.05235988,0.01745329,0.03490658,0.21574630,-0.12748645,-0.19613265,0.00100000,0.00100000,0.00100000,14
341,-0.03490658,-0.06981317,0.03490658,0.25497291,0.00000000,-0.20594024,0.00100000,0.00000000,0.00000000,15
342,-0.05235988,-0.06981317,0.01745329,0.00000000,0.11767981,0.04903316,0.00000000,0.00000000,0.00000000,16
343,0.00000000,0.03490658,-0.01745329,-0.02941995,0.23535962,0.04903316,-0.00100000,-0.00100000,0.00000000,14
344,-0.03490658,0.05235988,-0.06981317,0.13729310,-0.08825984,-0.16671371,0.00000000,0.00000000,0.00000000,15
345,-0.05235988,-0.03490658,0.00000000,0.31381282,-0.38245937,-0.39226627,0.00000000,0.00000000,-0.00100000,16
346,-0.03490658,-0.08726646,0.06981317,0.06864655,-0.15690641,-0.02941990,0.00000000,0.00000000,-0.00100000,14
347,-0.05235988,0.01745329,0.00000000,-0.11767981,0.21574630,0.00000000,0.00100000,0.00100000,0.00100000,15
348,0.00000000,0.03490658,-0.01745329,0.04903325,0.10787315,-0.36284637,0.00100000,0.00000000,0.00000000,15
349,-0.03490658,-0.05235988,-0.01745329,0.20593965,-0.11767981,-0.34323310,0.00000000,-0.00100000,0.00000000,15
350,-0.01745329,-0.05235988,0.00000000,0.16671305,-0.14709974,-0.01961327,0.00000000,0.00000000,0.00000000,15
351,-0.03490658,-0.05235988,0.05235988,0.13729310,-0.16671305,-0.10787297,0.00000000,0.00100000,-0.00100000,15
352,-0.05235988,-0.01745329,0.01745329,0.04903325,0.03922660,0.05884075,0.00000000,0.00000000,0.00000000,15
353,-0.01745329,-0.01745329,0.00000000,0.11767981,0.25497291,-0.10787297,0.00000000,0.00200000,0.00000000,15
354,-0.05235988,-0.01745329,-0.05235988,0.14709974,0.17651968,0.00980663,0.00100000,0.00100000,-0.00100000,15
355,0.00000000,0.03490658,-0.05235988,0.20593965,-0.12748645,-0.00980663,0.00100000,-0.00100000,0.00000000,15
356,-0.06981317,-0.05235988,0.00000000,0.32361946,-0.35303938,-0.27458572,0.00000000,-0.00100000,0.00000000,15
357,-0.05235988,-0.08726646,0.08726646,0.14709974,-0.12748645,-0.01961327,0.00100000,0.00000000,-0.00100000,15
358,-0.05235988,-0.01745329,0.03490658,-0.07845321,0.25497291,0.28439331,0.00100000,-0.00100000,-0.00200000,15
359,-0.05235988,0.13962633,-0.10471976,0.05883990,0.20593965,0.11767960,0.00000000,0.00100000,0.00000000,16
360,-0.03490658,0.03490658,-0.01745329,0.38245937,-0.34323275,-0.52955913,0.00100000,0.00000000,-0.00100000,14
361,-0.05235988,-0.08726646,0.01745329,0.22555296,-0.24516625,-0.33342552,0.00000000,0.00000000,0.00100000,15
362,-0.03490658,-0.05235988,0.03490658,0.02941995,-0.01961330,0.00000000,0.00000000,0.00000000,0.00000000,16
363,-0.05235988,-0.01745329,0.00000000,0.01961330,0.01961330,0.00000000,0.00000000,0.00100000,0.00000000,14
364,-0.03490658,0.01745329,0.01745329,0.02941995,-0.07845321,-0.09806633,0.00100000,-0.00100000,0.00000000,15
365,-0.03490658,0.00000000,0.03490658,0.08825984,0.03922660,-0.36284637,0.00000000,0.00100000,0.00000000,16
366,-0.05235988,-0.05235988,-0.03490658,0.13729310,0.12748645,-0.31381320,0.00100000,0.00100000,-0.00100000,14
367,-0.05235988,-0.05235988,-0.05235988,0.05883990,-0.11767981,-0.11767960,0.00200000,0.00000000,0.00000000,15
368,-0.01745329,0.00000000,0.00000000,0.08825984,-0.25497291,-0.01961327,0.00100000,0.00000000,0.00100000,16
369,-0.01745329,0.01745329,0.03490658,0.17651968,-0.12748645,-0.15690612,0.00000000,0.00100000,0.00000000,14
370,-0.03490658,-0.05235988,0.01745329,0.19613300,-0.01961330,-0.36284637,0.00000000,-0.00100000,-0.00100000,15
371,-0.03490658,-0.08726646,0.00000000,0.17651968,0.04903325,-0.00980663,0.00100000,-0.00100000,0.00000000,16
372,-0.01745329,0.01745329,-0.03490658,0.00000000,0.01961330,0.32361984,0.00100000,0.00000000,0.00000000,14
373,-0.01745329,0.06981317,0.01745329,0.09806651,-0.15690641,-0.20594024,0.00100000,0.00000000,-0.00100000,15
374,-0.03490658,-0.05235988,0.01745329,0.33342611,0.00000000,-0.33342552,0.00100000,0.00100000,-0.00100000,16
375,-0.01745329,-0.10471976,0.03490658,0.09806651,0.12748645,0.00000000,0.00200000,0.00000000,0.00000000,14
376,-0.03490658,-0.05235988,0.00000000,-0.00980665,0.13729310,0.20594024,0.00100000,-0.00100000,-0.00200000,16
377,-0.05235988,0.03490658,-0.03490658,0.00980665,-0.00980665,0.13729381,0.00000000,0.00100000,0.00000000,14
378,-0.01745329,0.05235988,0.00000000,0.22555296,-0.09806651,-0.20594024,0.00000000,0.00000000,0.00100000,15
379,-0.06981317,-0.01745329,-0.01745329,0.30400614,-0.04903325,-0.33342552,0.00100000,-0.00100000,-0.00100000,16
380,-0.03490658,-0.06981317,0.00000000,0.18632633,0.01961330,-0.09806633,0.00100000,-0.00100000,-0.00100000,14
381,-0.03490658,-0.03490658,0.00000000,0.08825984,0.00000000,0.01961327,-0.00100000,0.00100000,-0.00100000,15
382,-0.03490658,-0.03490658,0.00000000,0.16671305,-0.06864655,-0.02941990,0.00000000,-0.00100000,-0.00100000,16
383,-0.05235988,0.00000000,0.01745329,0.01961330,-0.18632633,0.05884075,0.00000000,0.00000000,-0.00100000,14
384,-0.03490658,0.06981317,0.03490658,0.03922660,-0.04903325,-0.23535919,0.00000000,-0.00100000,-0.00100000,15
385,-0.05235988,0.00000000,-0.03490658,0.20593965,0.03922660,-0.48052597,0.00000000,0.00200000,0.00100000,16
386,-0.05235988,-0.06981317,-0.05235988,0.13729310,-0.11767981,-0.18632602,-0.00100000,0.00100000,0.00000000,14
387,-0.03490658,-0.03490658,0.00000000,0.03922660,-0.24516625,0.07845306,0.00100000,0.00100000,-0.00100000,15
388,-0.01745329,0.01745329,0.01745329,0.14709974,-0.11767981,-0.13729286,-0.00100000,-0.00100000,-0.00100000,16
389,-0.01745329,-0.01745329,0.01745329,0.23535962,-0.07845321,-0.22555255,0.00100000,-0.00200000,0.00100000,15
390,-0.03490658,-0.01745329,0.00000000,0.18632633,-0.12748645,-0.15690612,0.00100000,0.00000000,0.00000000,14
391,-0.01745329,-0.05235988,0.03490658,0.17651968,-0.13729310,-0.15690612,0.00100000,0.00000000,0.00100000,16
392,-0.03490658,-0.03490658,0.01745329,0.06864655,0.00000000,0.09806633,0.00000000,0.00000000,0.00000000,15
393,-0.01745329,0.03490658,0.00000000,0.04903325,0.08825984,0.10787392,0.00000000,0.00000000,0.00000000,15
394,-0.03490658,0.00000000,0.01745329,0.19613300,-0.02941995,-0.19613265,0.00200000,0.00000000,0.00100000,15
395,-0.03490658,-0.05235988,0.00000000,0.18632633,-0.00980665,-0.15690612,0.00000000,0.00100000,0.00000000,14
396,-0.03490658,-0.01745329,0.01745329,0.02941995,0.04903325,-0.02941990,0.00000000,0.00100000,-0.00100000,16
397,-0.03490658,0.03490658,-0.05235988,0.07845321,0.16671305,0.00000000,0.00000000,0.00100000,-0.00100000,15
398,-0.01745329,0.00000000,-0.01745329,0.19613300,-0.02941995,-0.20594024,0.00000000,0.00000000,-0.00100000,14
399,-0.03490658,-0.05235988,-0.01745329,0.08825984,-0.10787315,-0.21574687,0.00000000,0.00000000,0.00000000,16
400,-0.01745329,-0.05235988,0.03490658,0.04903325,0.00980665,-0.09806633,0.00000000,0.00000000,0.00000000,14
401,-0.03490658,-0.03490658,-0.01745329,0.02941995,0.15690641,0.00000000,0.00100000,0.00000000,-0.00100000,15
402,-0.03490658,0.01745329,-0.06981317,0.02941995,0.03922660,0.12748622,0.00000000,0.00100000,0.00100000,16
403,-0.03490658,0.03490658,-0.03490658,0.16671305,-0.18632633,-0.14709949,0.00000000,0.00100000,0.00000000,14
404,-0.01745329,-0.01745329,0.01745329,0.29419948,-0.13729310,-0.27458572,0.00100000,0.00000000,0.00000000,15
405,-0.03490658,-0.08726646,0.01745329,0.19613300,-0.10787315,-0.15690612,0.00000000,0.00000000,0.00000000,16
406,-0.03490658,0.00000000,0.00000000,0.03922660,0.00000000,0.13729381,0.00100000,-0.00100000,-0.00100000,14
407,-0.03490658,0.01745329,0.00000000,0.13729310,-0.04903325,-0.00980663,0.00000000,0.00100000,0.00000000,15
408,-0.05235988,-0.01745329,0.00000000,0.17651968,-0.06864655,-0.14709949,0.00000000,0.00000000,0.00000000,15
409,-0.06981317,0.00000000,0.00000000,0.06864655,0.00000000,-0.05883980,0.00100000,0.00000000,0.00000000,15
410,-0.03490658,0.00000000,-0.01745329,0.15690641,0.09806651,-0.07845306,0.00000000,0.00100000,0.00000000,14
411,-0.03490658,-0.03490658,-0.01745329,0.14709974,-0.03922660,-0.08825970,0.00000000,0.00100000,0.00000000,16
412,-0.05235988,-0.01745329,0.00000000,0.09806651,-0.12748645,0.01961327,0.00000000,-0.00100000,-0.00100000,15
413,-0.03490658,0.01745329,0.03490658,0.17651968,-0.13729310,0.00980663,0.00100000,0.00100000,-0.00100000,15
414,-0.05235988,-0.01745329,0.03490658,0.14709974,-0.00980665,-0.14709949,0.00000000,0.00000000,0.00000000,15
415,-0.05235988,-0.01745329,0.00000000,0.10787315,0.10787315,-0.16671371,0.00200000,0.00200000,0.00100000,15
416,-0.05235988,-0.01745329,-0.03490658,0.04903325,0.10787315,-0.10787297,0.00000000,0.00000000,0.00000000,15
417,-0.05235988,0.00000000,-0.05235988,0.07845321,-0.02941995,-0.14709949,0.00200000,-0.00100000,0.00000000,15
418,-0.05235988,-0.01745329,-0.01745329,0.11767981,-0.16671305,-0.24516582,0.00000000,0.00100000,0.00000000,15
419,-0.03490658,-0.05235988,0.03490658,0.18632633,-0.25497291,-0.22555255,0.00000000,-0.00100000,0.00000000,15
420,-0.06981317,-0.03490658,0.00000000,0.05883990,-0.06864655,-0.00980663,0.00100000,0.00000000,0.00000000,15
421,-0.01745329,0.01745329,0.03490658,0.06864655,-0.07845321,-0.19613265,0.00100000,0.00000000,0.00000000,15
422,-0.05235988,-0.03490658,-0.01745329,0.15690641,0.07845321,-0.39226627,0.00000000,0.00100000,-0.00100000,15
423,-0.01745329,-0.08726646,-0.01745329,0.10787315,0.11767981,-0.01961327,0.00100000,0.00000000,0.00100000,15
424,-0.03490658,-0.01745329,-0.06981317,0.03922660,-0.02941995,0.09806633,0.00000000,0.00000000,0.00000000,15
425,-0.03490658,0.01745329,-0.05235988,0.12748645,-0.11767981,0.04903316,0.00100000,0.00100000,-0.00100000,15
426,-0.03490658,0.06981317,-0.01745329,0.22555296,-0.27458620,-0.04903316,0.00000000,0.00000000,0.00100000,15
427,-0.03490658,0.00000000,0.05235988,0.40207266,-0.25497291,-0.49033260,0.00000000,0.00000000,-0.00200000,15
428,-0.03490658,-0.13962633,0.01745329,0.29419948,0.09806651,-0.12748622,0.00000000,0.00100000,-0.00100000,15
429,-0.01745329,-0.03490658,-0.03490658,0.01961330,0.11767981,0.40207290,0.00000000,0.00000000,0.00000000,15
430,-0.03490658,0.10471976,-0.05235988,0.03922660,-0.19613300,0.06864643,0.00000000,0.00000000,0.00100000,16
431,-0.01745329,0.03490658,0.03490658,0.33342611,-0.28439283,-0.30400657,-0.00100000,0.00000000,-0.00100000,14
432,-0.03490658,-0.05235988,0.05235988,0.25497291,-0.02941995,-0.17651939,0.00000000,0.00000000,0.00000000,15
433,-0.05235988,-0.06981317,0.03490658,0.06864655,0.15690641,-0.08825970,0.00100000,0.00100000,0.00000000,16
434,-0.03490658,0.00000000,-0.03490658,-0.02941995,0.19613300,0.06864643,0.00000000,0.00000000,0.00000000,14
435,-0.03490658,0.03490658,-0.01745329,0.00980665,0.00000000,-0.07845306,0.00100000,0.00000000,-0.00200000,15
436,-0.05235988,0.00000000,-0.03490658,0.10787315,-0.02941995,-0.18632602,0.00100000,0.00000000,0.00000000,15
437,-0.05235988,-0.03490658,0.00000000,0.02941995,-0.06864655,-0.14709949,0.00100000,0.00100000,0.00000000,15
438,-0.03490658,0.01745329,-0.01745329,0.00980665,0.03922660,-0.09806633,0.00100000,0.00100000,0.00000000,15
439,-0.03490658,-0.05235988,0.00000000,0.11767981,-0.00980665,-0.28439235,0.00100000,0.00100000,0.00000000,15
440,-0.03490658,-0.06981317,0.01745329,0.02941995,-0.03922660,-0.01961327,0.00000000,0.00000000,-0.00100000,15
441,-0.01745329,0.00000000,0.00000000,-0.00980665,0.07845321,0.13729381,0.00000000,0.00000000,0.00000000,15
442,-0.05235988,0.03490658,-0.05235988,0.05883990,-0.00980665,-0.00980663,0.00000000,0.00000000,-0.00100000,15
443,-0.03490658,0.00000000,-0.01745329,0.24516625,-0.01961330,-0.29419898,0.00000000,0.00000000,-0.00100000,15
444,-0.05235988,-0.06981317,-0.03490658,0.29419948,-0.03922660,-0.29419898,0.00200000,0.00000000,-0.00100000,14
445,-0.05235988,-0.05235988,-0.05235988,0.11767981,-0.11767981,0.08825970,0.00100000,0.00100000,0.00100000,16
446,-0.03490658,0.00000000,0.00000000,0.11767981,-0.18632633,0.11767960,0.00000000,0.00000000,0.00000000,15
447,-0.01745329,0.01745329,-0.01745329,0.23535962,-0.11767981,0.00000000,0.00000000,0.00000000,0.00000000,14
448,-0.03490658,0.01745329,0.00000000,0.27458620,-0.19613300,-0.10787297,0.00100000,0.00300000,-0.00100000,16
449,-0.05235988,-0.03490658,0.00000000,0.24516625,-0.16671305,-0.18632602,-0.00100000,0.00000000,0.00100000,15
450,-0.03490658,-0.05235988,0.03490658,0.11767981,-0.05883990,-0.04903316,0.00000000,0.00000000,-0.00100000,15
451,-0.01745329,0.00000000,0.00000000,0.05883990,0.12748645,0.03922653,0.00100000,0.00000000,-0.00100000,15
452,-0.03490658,0.00000000,-0.01745329,0.11767981,0.02941995,0.00000000,0.00000000,0.00000000,0.00200000,15
453,-0.03490658,0.03490658,0.00000000,0.11767981,-0.17651968,-0.13729286,0.00100000,0.00000000,0.00100000,15
454,-0.03490658,-0.01745329,0.03490658,0.26477956,-0.09806651,-0.31381320,0.00100000,0.00100000,0.00000000,15
455,-0.06981317,-0.06981317,0.00000000,0.12748645,-0.04903325,-0.25497341,0.00000000,0.00000000,0.00000000,14
456,-0.03490658,-0.05235988,0.01745329,-0.10787315,0.04903325,-0.00980663,0.00100000,-0.00200000,0.00100000,16
457,-0.03490658,0.00000000,-0.01745329,-0.10787315,0.12748645,0.06864643,0.00100000,0.00100000,0.00200000,15
458,-0.03490658,0.08726646,-0.06981317,0.05883990,0.00000000,-0.00980663,0.00100000,0.00100000,0.00000000,14
459,-0.01745329,0.01745329,0.00000000,0.22555296,-0.17651968,-0.39226627,0.00000000,0.00000000,-0.00100000,16
460,-0.05235988,-0.06981317,0.00000000,0.28439283,-0.08825984,-0.38245868,0.00100000,0.00000000,0.00000000,15
461,-0.05235988,-0.06981317,0.00000000,0.12748645,-0.01961330,-0.02941990,0.00100000,-0.00100000,0.00100000,14
462,-0.03490658,-0.03490658,0.00000000,0.02941995,-0.10787315,0.11767960,0.00100000,0.00100000,0.00000000,16
463,-0.01745329,0.03490658,0.03490658,0.01961330,-0.02941995,-0.04903316,0.00100000,-0.00100000,0.00100000,15
464,-0.03490658,-0.01745329,-0.01745329,0.20593965,0.19613300,-0.26478004,0.00000000,0.00100000,-0.00100000,14
465,-0.03490658,-0.05235988,-0.05235988,0.16671305,0.04903325,-0.04903316,0.00000000,0.00000000,0.00000000,16
466,-0.01745329,-0.01745329,-0.01745329,0.12748645,-0.19613300,0.10787392,0.00000000,0.00100000,0.00000000,15
467,-0.03490658,0.01745329,0.01745329,0.12748645,-0.26477956,-0.12748622,0.00200000,0.00000000,0.00000000,14
468,-0.03490658,-0.01745329,0.05235988,0.14709974,-0.04903325,-0.23535919,0.00000000,0.00000000,0.00000000,16
469,-0.05235988,-0.03490658,-0.03490658,0.08825984,0.15690641,-0.05883980,0.00000000,0.00000000,0.00100000,15
470,-0.03490658,-0.01745329,-0.01745329,0.05883990,-0.08825984,-0.16671371,0.00100000,-0.00100000,-0.00100000,15
471,-0.01745329,-0.03490658,0.01745329,0.16671305,-0.03922660,-0.25497341,0.00000000,0.00100000,0.00000000,15
472,-0.03490658,-0.06981317,0.01745329,0.03922660,0.00980665,-0.09806633,0.00100000,0.00100000,-0.00100000,15
473,-0.01745329,-0.01745329,-0.03490658,0.00980665,0.08825984,0.03922653,0.00000000,-0.00100000,-0.00100000,15
474,-0.03490658,0.03490658,-0.08726646,0.12748645,-0.10787315,-0.02941990,0.00000000,0.00000000,0.00000000,15
475,-0.01745329,0.00000000,0.01745329,0.22555296,-0.27458620,-0.25497341,0.00000000,0.00200000,-0.00100000,15
476,-0.03490658,-0.05235988,0.01745329,0.22555296,-0.07845321,-0.25497341,0.00200000,0.00000000,0.00000000,15
477,-0.03490658,-0.08726646,0.00000000,0.16671305,0.06864655,0.06864643,0.00100000,0.00100000,0.00000000,15
478,-0.03490658,0.00000000,0.00000000,0.07845321,-0.06864655,0.19613265,0.00000000,0.00000000,-0.00100000,15
479,-0.01745329,0.03490658,0.00000000,0.24516625,-0.07845321,-0.11767960,0.00100000,0.00000000,0.00100000,15
480,-0.05235988,-0.05235988,0.00000000,0.38245937,-0.11767981,-0.25497341,0.00100000,0.00100000,0.00100000,15
481,-0.03490658,-0.08726646,0.03490658,0.19613300,-0.07845321,0.00000000,0.00100000,0.00000000,0.00000000,15
482,-0.05235988,0.00000000,0.00000000,0.00980665,0.06864655,0.26477909,0.00100000,0.00100000,-0.00200000,15
483,-0.03490658,0.05235988,0.00000000,0.03922660,0.05883990,0.03922653,0.00100000,0.00000000,0.00000000,15
484,-0.03490658,0.01745329,-0.03490658,0.16671305,0.02941995,-0.22555255,0.00100000,0.00000000,-0.00100000,14
485,-0.05235988,-0.03490658,0.01745329,0.21574630,-0.10787315,-0.22555255,0.00000000,0.00200000,0.00000000,16
486,-0.05235988,-0.03490658,-0.01745329,0.10787315,0.00980665,-0.02941990,0.00000000,0.00000000,0.00200000,15
487,-0.03490658,0.00000000,0.01745329,0.04903325,-0.01961330,0.03922653,0.00000000,0.00000000,0.00000000,15
488,-0.03490658,0.05235988,-0.01745329,0.07845321,0.00000000,-0.06864643,0.00100000,0.00100000,0.00000000,15
489,-0.01745329,0.00000000,-0.01745329,0.23535962,-0.10787315,-0.41187953,-0.00100000,0.00100000,0.00000000,14
490,-0.05235988,-0.06981317,-0.03490658,0.26477956,-0.15690641,-0.18632602,0.00100000,0.00200000,0.00000000,16
491,-0.01745329,-0.01745329,0.01745329,0.06864655,-0.26477956,0.17651939,0.00000000,0.00000000,0.00100000,15
492,-0.03490658,0.03490658,0.05235988,0.10787315,-0.23535962,0.00980663,0.00100000,0.00000000,0.00000000,15
493,-0.01745329,-0.01745329,0.08726646,0.20593965,-0.01961330,-0.31381320,0.00000000,0.00100000,0.00000000,15
494,-0.05235988,-0.08726646,0.00000000,0.06864655,0.27458620,-0.17651939,0.00100000,-0.00100000,0.00100000,15
495,-0.03490658,0.00000000,-0.03490658,-0.11767981,0.23535962,0.14709949,0.00000000,0.00100000,0.00000000,15
496,-0.01745329,0.05235988,-0.03490658,0.07845321,-0.00980665,-0.05883980,0.00000000,0.00100000,-0.00100000,15
497,-0.05235988,-0.06981317,0.00000000,0.26477956,-0.12748645,-0.19613265,0.00100000,-0.00200000,-0.00100000,15
498,-0.05235988,-0.01745329,0.01745329,0.02941995,-0.04903325,0.17651939,-0.00100000,0.00000000,-0.00100000,15
499,0.00000000,0.01745329,0.03490658,0.10787315,0.09806651,-0.08825970,0.00100000,0.00000000,-0.00100000,15
