index,acc_x,acc_y,acc_z,gyr_x,gyr_y,gyr_z,mag_x,mag_y,mag_z,roll,pitch,yaw,time_capture,acc_x_filtered,acc_y_filtered,acc_z_filtered,pitch_filtered,roll_filtered,yaw_filtered,x,y,z,speed
0,-0.2157,0.0392,9.6988,-0.0349,-0.0349,0.0,0,0,0,0.2317,1.2744,296.8192,79,-0.22610903119868647,0.018396059113300486,9.69373997445722,1.3362477832512318,0.108593377120963,206.25903393541358,0.10829007225368206,-0.20563277816783776,0.9726193606926963,0
1,-0.2256,0.0294,9.6694,-0.0349,-0.0349,0.0,0,0,0,0.1743,1.3364,180.0035,79,-0.22918405119784435,0.023727379899793673,9.692857805285394,1.354503991410888,0.14022549787377334,196.75273476906258,-0.08420391536726256,0.19740081098840112,0.9766998620138863,0
2,-0.2354,-0.0098,9.6792,-0.0524,-0.0175,0.0,0,0,0,-0.0581,1.393,45.0027,80,-0.23113571723295864,0.02809475222095909,9.692164365851264,1.3661043332912297,0.16613686918445492,190.8119217641364,-0.137892923864781,0.14934002440867278,0.9791236380854252,0
3,-0.2452,0.0392,9.7086,-0.0524,-0.0175,0.0,0,0,0,0.2315,1.4467,134.9999,79,-0.23208947286430043,0.0315836667929771,9.691643577954613,1.3717916117216116,0.18683466464569864,188.02767802997778,0.17644681894779413,-0.08915914718559391,0.9802638249758796,0
4,-0.2452,0.0294,9.7184,-0.0349,-0.0175,0.0,0,0,0,0.1735,1.4452,270.0058,79,-0.23217076165214093,0.034279614332028085,9.691279363395225,1.3723086295313878,0.20282605785019525,187.9910866759295,0.17262327853379844,-0.09530947329497828,0.9803659051642282,0
5,-0.2157,0.0294,9.7086,-0.0349,-0.0349,0.0,0,0,0,0.1736,1.2731,269.3626,79,-0.23150502715675125,0.03626808555429241,9.691055643972884,1.3683981895499133,0.21461822239063563,190.2932308113343,-0.04521602229764295,0.19586777796548188,0.9795873237656987,0
6,-0.2354,0.049,9.6792,-0.0524,-0.0175,0.0,0,0,0,0.2903,1.393,270.0031,79,-0.23021771293840254,0.03763457117595044,9.690956341487375,1.3608030946065426,0.22271833185971063,194.525193545535,0.20178856845146426,-0.05228904170124136,0.9780323255190876,0
7,-0.2452,0.0294,9.6988,-0.0349,-0.0175,0.0,0,0,0,0.1738,1.4481,1.4759,77,-0.22843426255736593,0.03846456191318255,9.690965377738479,1.35026614753063,0.22763355985011102,200.27805798787426,0.1549133894043128,-0.15444121444694545,0.9757816113574903,0
8,-0.2256,0.0392,9.6694,-0.0349,-0.0349,0.0,0,0,0,0.2325,1.3364,134.9999,78,-0.2262801195739126,0.03884354848216912,9.691066674525983,1.33753015115153,0.22987107995452766,207.1429072476949,0.2264467813285105,-0.04642378282890049,0.9729165882098079,0
9,-0.1961,0.049,9.6792,-0.0349,-0.0349,0.0,0,0,0,0.2903,1.1609,360.0168,78,-0.2238807275483137,0.03885702159909052,9.691244153649668,1.3233379082985977,0.22993806576565143,214.7108244343397,0.11490183112676833,0.21631796799331213,0.9695380889511046,0
10,-0.2256,0.0392,9.7086,-0.0524,-0.0349,0.0,0,0,0,0.2315,1.331,270.0048,79,-0.22136153004084033,0.038590471980127106,9.69148173690932,1.3084322218011872,0.22834169087617312,222.5728926571514,-0.23003272497094213,0.11981184527298057,0.9657795127122578,0
11,-0.2452,0.049,9.6792,-0.0349,-0.0349,0.0,0,0,0,0.2903,1.451,223.5612,79,-0.21884797061176367,0.03812939034145927,9.691763346104722,1.2935558944886532,0.22558912887878357,230.3201950254728,-0.1515636652197475,-0.22790681223162307,0.9618144001435911,0
12,-0.1961,0.0294,9.6988,-0.0349,-0.0349,0.0,0,0,0,0.1738,1.1586,268.8243,81,-0.21646549282135485,0.037559267399267376,9.692072903035658,1.27945172919035,0.22218755336617363,237.54381464864662,0.09945657029206816,-0.26947253798539106,0.9578585187267746,0
13,-0.2157,0.0196,9.6988,-0.0349,-0.0349,0.0,0,0,0,0.1159,1.2744,296.5695,80,-0.21433954022988952,0.03696559386973257,9.692394329502116,1.2668625287356585,0.21864413793103904,243.83483463602036,0.1058203669696702,-0.2799431743074163,0.9541665835131159,0
14,-0.1863,0.0,9.6792,-0.0349,-0.0349,0.0,0,0,0,0.0,1.1029,206.5747,80,-0.21358252873563663,0.03852222222222302,9.691703448276064,1.2625437547892981,0.22786904214559864,248.8443534865952,-0.2399514015644227,-0.18566439264618015,0.952865183638585,0
15,-0.1765,0.0883,9.689,-0.0349,-0.0349,0.0,0,0,0,0.5219,1.0438,180.0035,80,-0.2136275095785485,0.04116743295019242,9.690148965517443,1.2630393869732064,0.2435236781609246,238.5664622988555,0.29720531940466116,-0.058571086743231214,0.9530154384454065,0
16,-0.2354,0.0686,9.6792,-0.0524,-0.0175,0.0,0,0,0,0.4064,1.393,222.2259,81,-0.21690007662835697,0.04032789272030735,9.688571954023189,1.2825594636015591,0.23854865900383634,222.01276007663293,-0.14382127252083388,0.24519477504540593,0.958746558721814,0
17,-0.2354,0.0196,9.6792,-0.0349,-0.0175,0.0,0,0,0,0.1161,1.393,295.994,80,-0.21948873563218846,0.04255195402298939,9.690426819923573,1.2975836781609467,0.2516400000000052,211.11944551724577,-0.21759105860245959,-0.15956305943638283,0.9629090098651909,0
18,-0.2256,0.0686,9.7184,-0.0349,-0.0349,0.0,0,0,0,0.4047,1.3296,267.2142,80,-0.22093846743295478,0.04230505747126524,9.692634636015526,1.3058453639847014,0.25012022988506266,216.75165318008112,-0.2618183835917836,0.004776075416611333,0.9651053430154661,0
19,-0.2059,0.0294,9.7184,-0.0349,-0.0175,0.0,0,0,0,0.1735,1.214,181.2438,80,-0.22215042145594333,0.04286888888888978,9.693873716475299,1.3128773180076903,0.25340712643678687,219.0424651341042,0.1646660870281161,-0.19479539993355208,0.966922867630907,0
20,-0.2452,0.0294,9.689,-0.0349,-0.0349,0.0,0,0,0,0.174,1.4496,178.5897,81,-0.22492758620690123,0.04334229885057561,9.696629731800966,1.3288977777778055,0.2561318773946414,215.18677601533017,0.0029513171056757535,0.23952814822031376,0.9708849344476869,0
21,-0.2059,0.0,9.6694,-0.0349,-0.0349,0.0,0,0,0,0.0,1.2202,205.8466,80,-0.22748199233716945,0.04327471264367906,9.697418237548092,1.3438872030651619,0.25571908045977537,202.1632078927245,0.10178781419444669,0.2006224628846181,0.9743663932359463,0
22,-0.2354,0.0392,9.6988,-0.0349,-0.0175,0.0,0,0,0,0.2317,1.3902,270.6913,80,-0.2289341762452155,0.04445340996168674,9.696629731800968,1.3525744061302962,0.26270950191571424,190.1238800766323,-0.012446852538998557,0.21613595748140071,0.9762839360275629,0
23,-0.2059,0.049,9.7086,-0.0349,-0.0349,0.0,0,0,0,0.2894,1.2153,225.0098,80,-0.22974306513410436,0.04309647509578633,9.697560919540432,1.3572216091954306,0.25469555555556084,188.79297210728362,0.20264947239954278,0.062112842346629595,0.9772794821092939,0
24,-0.2452,0.0588,9.6988,-0.0349,-0.0349,0.0,0,0,0,0.3476,1.4481,134.9872,81,-0.2305280459770163,0.04423892720306605,9.699310651341197,1.3615932567050093,0.26142467432950733,182.9975737164789,0.14688135339574845,0.14682309561183463,0.9781967320634389,0
25,-0.2648,0.0588,9.689,-0.0349,-0.0175,0.0,0,0,0,0.348,1.5655,3.2993,78,-0.2340555555555604,0.04392406130268291,9.698349425287557,1.3825556321839367,0.2596231417624575,176.6951301149462,0.13487089639662683,0.1297221524687917,0.982334975690082,0
26,-0.2648,0.0785,9.6792,-0.0524,-0.0349,0.0,0,0,0,0.4644,1.567,91.5093,79,-0.2371169348659053,0.04387908045977103,9.699948965517445,1.4004249808429408,0.2593297318007717,173.81714704981206,-0.08735191567011516,-0.14531441476571655,0.9855218737755436,0
27,-0.2452,0.0588,9.7184,-0.0349,-0.0349,0.0,0,0,0,0.3469,1.4452,134.9996,80,-0.23866628352490915,0.04391624521072888,9.699025287356523,1.4096800000000291,0.2595881992337219,172.89360605364348,-0.15951960684680164,-0.01697432478191654,0.9870488170955071,0
28,-0.2452,0.0294,9.7086,-0.0349,-0.0175,0.0,0,0,0,0.1736,1.4467,315.0025,80,-0.2373472796934915,0.043209501915709714,9.698845057471466,1.4019122605364274,0.2554137931034536,173.72901011494616,-0.09894093183769685,-0.1358763558274184,0.9857729494838804,0
29,-0.1961,0.0392,9.7184,-0.0349,-0.0349,0.0,0,0,0,0.2313,1.1562,296.569,80,-0.23220521072797418,0.04658666666666763,9.698972720306713,1.3715182375479211,0.2753752490421513,173.47458559387334,-0.1530558596969876,-0.12554983725793017,0.9802097439716274,0
30,-0.2157,0.0196,9.689,-0.0349,-0.0175,0.0,0,0,0,0.116,1.2757,267.3393,80,-0.23344168582375965,0.048809961685824764,9.696937624521276,1.379056475095814,0.28857701149425885,177.18847601532937,0.05840793135928226,0.18139556834615553,0.9816741625094879,0
31,-0.2452,0.049,9.6988,-0.0349,-0.0175,0.0,0,0,0,0.2897,1.4481,89.9896,79,-0.23264528735632667,0.04401440613026911,9.695525823754991,1.3745655938697605,0.2603299616858291,189.77472988506145,0.056056842372682006,0.18674156308816633,0.9808084517573208,0
32,-0.2256,0.0294,9.7184,-0.0349,-0.0349,0.0,0,0,0,0.1735,1.3296,135.0,80,-0.23310436781609678,0.04512007662835343,9.699340689655374,1.376732567049837,0.266776168582381,211.1783535632228,-0.148530987921547,-0.12299950785521127,0.9812286515865836,0
33,-0.2157,0.049,9.6596,-0.0349,-0.0175,0.0,0,0,0,0.2909,1.2796,267.3268,80,-0.2319961685823803,0.043596934865901285,9.700947739463805,1.3699881992337448,0.2577495785440666,221.26925249042606,0.04217049754682614,0.19495243832983866,0.9799057076708471,0
34,-0.2354,0.0392,9.7086,-0.0349,-0.0349,0.0,0,0,0,0.2315,1.3888,134.9999,80,-0.2332714176245259,0.04143501915708898,9.699228045977215,1.3777093486590326,0.2450260536398518,223.531746819928,-0.17032277916884536,-0.08838381544802924,0.9814165537950995,0
35,-0.2452,0.0196,9.7086,-0.0349,-0.0349,0.0,0,0,0,0.1158,1.4467,180.0035,81,-0.23233900383142245,0.037748199233717264,9.698567203065336,1.3722744061302967,0.2232052873563265,228.69544819923848,-0.15809362190749288,0.11790814900599517,0.9803591561821365,0
36,-0.2256,0.0785,9.6792,-0.0349,-0.0175,0.0,0,0,0,0.4644,1.335,225.0082,80,-0.23231915708812745,0.03533754789272104,9.69916796934886,1.3720495019157373,0.20892551724138367,239.66391655172913,0.12228614361793899,0.15501303070351907,0.9803147756670623,0
37,-0.255,0.0294,9.689,-0.0524,-0.0175,0.0175,0,0,0,0.174,1.5075,269.2418,80,-0.2285777777777825,0.03459356321839152,9.700782528735832,1.3497741762452387,0.20447785440613453,252.4762976245263,0.08977447673507039,0.20000257735537175,0.9756738760355085,0
38,-0.2354,0.0686,9.7086,-0.0349,-0.0175,0.0,0,0,0,0.4051,1.3888,270.0003,80,-0.22791839080460244,0.035794099616858976,9.701233103448477,1.3458014559387252,0.21155295019157527,261.9555824521127,-0.08013667269206118,-0.20821222715395737,0.9747952514007412,0
39,-0.1863,0.049,9.6792,-0.0349,-0.0175,0.0,0,0,0,0.2903,1.1029,296.117,81,-0.22721632183908516,0.03526697318007736,9.699618544061504,1.3419235249042425,0.20846651340996603,268.97867877395197,0.08257327527247803,-0.21131996334234482,0.9739227522261535,0
40,-0.2157,0.0294,9.7282,-0.0524,-0.0349,0.0,0,0,0,0.1733,1.2706,360.0168,80,-0.22801770114943004,0.035429425287357055,9.698086590038514,1.346904521072825,0.20945708812260974,262.96663977012037,0.13324259065680316,-0.17760050892694346,0.9750407536426128,0
41,-0.2256,0.0,9.6988,-0.0349,-0.0349,0.0,0,0,0,0.0,1.3323,296.571,80,-0.2293133333333381,0.0372165517241387,9.698987739463803,1.3543923371647792,0.21996275862069423,257.3316084291241,0.2064166258059315,-0.059130153121833395,0.9766758938269555,0
42,-0.2746,0.0,9.6988,-0.0349,-0.0175,0.0,0,0,0,0.0,1.6218,315.0021,79,-0.22892934865900857,0.03703586206896629,9.700316934866104,1.351947203065162,0.21885095785441067,264.10026888889433,0.21249443959823847,0.04451153443194399,0.9761479582739209,0
43,-0.2157,0.0,9.7282,-0.0349,-0.0175,0.0,0,0,0,0.0,1.2706,315.0063,80,-0.22754911877395112,0.036471877394636774,9.7029753256707,1.343475478927231,0.21545348659004282,268.6703902682048,0.01446283064495998,-0.22490355857937144,0.9742736863264195,0
44,-0.255,0.0785,9.7184,-0.0349,-0.0175,0.0,0,0,0,0.4626,1.5029,269.998,79,-0.2271867432950239,0.03490130268199306,9.70212674329522,1.3414468199233993,0.20615019157088552,271.8718129501972,-0.028129404371746488,0.22559716729643192,0.9738144868081993,0
45,-0.2256,0.0294,9.6596,-0.0524,-0.0349,0.0,0,0,0,0.1745,1.3377,91.2998,78,-0.22824773946360627,0.03364582375478997,9.702765057471467,1.3476103448276142,0.19871662835249454,268.32941065134656,-0.0604786606462842,-0.2129147949341755,0.9751972219528569,0
46,-0.2256,0.0392,9.6988,-0.0349,-0.0175,0.0,0,0,0,0.2317,1.3323,180.0035,80,-0.22720858237548366,0.03048260536398531,9.705949118774146,1.3410638314176524,0.17996704980843287,272.2956930268256,-0.1186223903897587,0.19438051777535906,0.9737273452089158,0
47,-0.2157,0.049,9.738,-0.0524,-0.0175,0.0,0,0,0,0.2885,1.2693,315.0032,80,-0.22651448275862537,0.027994942528736216,9.706467279693687,1.3369114942529012,0.16527210727969693,268.2727102682048,-0.07585818774211449,-0.21899190939025784,0.9727733954904869,0
48,-0.2059,0.0392,9.6988,-0.0524,-0.0175,0.0,0,0,0,0.2317,1.2165,315.0132,80,-0.2257148659003878,0.027256704980843476,9.708036781609398,1.331998160919568,0.16089402298850908,253.67774712644203,-0.16627262558209446,0.16823273265062508,0.9716229524084639,0
49,-0.2059,0.049,9.6988,-0.0349,-0.0175,0.0,0,0,0,0.2897,1.2165,315.0043,80,-0.22542007662835717,0.025451800766284054,9.711063141762653,1.329843371647537,0.15018498084291498,250.5304945593922,0.1667806770131808,-0.1706681120243145,0.9711110138975261,0
50,-0.2354,0.0294,9.689,-0.0349,-0.0175,0.0,0,0,0,0.174,1.3916,268.58,81,-0.22588252873563686,0.029180306513410567,9.710770268199436,1.3325980076628627,0.17224865900383501,242.5398863601583,-0.18964275882198717,-0.14038897735090622,0.9717646623873253,0
51,-0.2157,0.0,9.6988,-0.0349,-0.0175,0.0,0,0,0,0.0,1.2744,227.5611,80,-0.22710613026820395,0.0281655172413799,9.712697318007866,1.3395666666666945,0.16622114942529082,234.37644996169067,-0.073784689599067,0.21697195773165187,0.9733853240823305,0
52,-0.2452,0.0294,9.7282,-0.0349,-0.0349,0.0,0,0,0,0.1733,1.4437,45.0003,79,-0.22868160919540703,0.029425977011494863,9.71087808429139,1.3490970881226334,0.17372712643678523,227.26238337165222,0.10601434455945433,0.19264348144659751,0.9755252163853909,0
53,-0.2354,0.049,9.7184,-0.0349,-0.0175,0.0,0,0,0,0.2891,1.3874,268.5816,80,-0.22695363984674805,0.030536091954023625,9.709907586207098,1.3390158620689934,0.18032390804598078,222.55120919540693,-0.20138393306335112,0.11050581680461292,0.9732589459934499,0
54,-0.2157,0.0098,9.7184,-0.0349,-0.0349,0.0,0,0,0,0.0578,1.2718,270.0089,81,-0.22518888888889357,0.03244206896551792,9.70978582375499,1.328674099616886,0.1916126436781649,223.65791892720773,-0.19722771820415666,-0.13633692838290457,0.9708313288780377,0
55,-0.255,0.0098,9.7086,-0.0349,-0.0175,0.0,0,0,0,0.0579,1.5045,223.5117,80,-0.2244293486590085,0.031238927203065786,9.708289961686026,1.324404444444472,0.184554559386977,225.5385574712691,0.1932638959771289,-0.14879315038860264,0.9697987754731268,0
56,-0.2256,0.0196,9.6988,-0.0349,-0.0175,0.0,0,0,0,0.1159,1.3323,270.0075,80,-0.22593203065134568,0.02817325670498143,9.706756704981045,1.3335038314176522,0.16649440613027167,231.51820727969832,0.13488597459594392,-0.19252156112447302,0.971977994791805,0
57,-0.2157,0.0098,9.738,-0.0349,-0.0349,0.0,0,0,0,0.0577,1.2693,296.3132,80,-0.22667601532567522,0.02690222222222279,9.708482758620892,1.337688122605392,0.15900076628352824,246.17530505747632,0.09833430703997811,0.20902785568062496,0.9729530921933118,0
58,-0.2157,0.0294,9.7282,-0.0349,-0.0349,0.0,0,0,0,0.1733,1.2706,222.4723,81,-0.22667632183908518,0.030901915708812906,9.708677011494455,1.337639386973208,0.18260045977011874,246.9229117241431,-0.0700190726965258,0.2201851927634532,0.9729418329717556,0
59,-0.2354,0.049,9.7086,-0.0349,-0.0175,0.0,0,0,0,0.2894,1.3888,43.6096,79,-0.22697885057471734,0.031187279693487238,9.706107892720508,1.339749885057499,0.18433762452107666,235.80378145594364,-0.22511681815015444,-0.04197280221352782,0.973427296751172,0
60,-0.2157,0.0686,9.689,-0.0349,-0.0175,0.0,0,0,0,0.406,1.2757,271.2489,80,-0.22849977011494726,0.03152521072797,9.701150881226255,1.3493911111111392,0.1864414559387012,222.7750616092,-0.21116843988205616,0.06026923731162491,0.975589826223938,0
61,-0.2354,0.0392,9.7086,-0.0524,-0.0349,0.0,0,0,0,0.2315,1.3888,333.1684,80,-0.2274701149425335,0.03457409961685895,9.701555862069167,1.3432967049808706,0.20441049808429546,222.75854559387435,-0.21582994789401375,0.0654733022264193,0.974233380811618,0
62,-0.2452,0.0392,9.6792,-0.0349,-0.0175,0.0,0,0,0,0.2322,1.451,134.9999,81,-0.228937854406135,0.035340076628353215,9.700774482758822,1.3520481992337445,0.20894712643678592,222.90702444444906,-0.21469728626956297,0.03158227747978273,0.976169880204094,0
63,-0.2157,0.0,9.6988,-0.0349,-0.0175,0.0,0,0,0,0.0,1.2744,223.7396,80,-0.22671885057471736,0.03825379310344906,9.699940689655374,1.3390876628352768,0.226173486590043,219.26834766283977,0.18376269336405623,-0.13771781464495633,0.9732754368918417,0
64,-0.2354,0.0392,9.6497,-0.0349,-0.0349,0.0,0,0,0,0.2329,1.3973,270.0045,80,-0.22977478927203543,0.03832137931034561,9.698836704981046,1.3572527203065416,0.22658942528736098,218.6417628352536,0.06284521049596939,-0.20239171326049063,0.9772860757839542,0
65,-0.2157,0.049,9.7282,-0.0349,-0.0175,0.0,0,0,0,0.2888,1.2705,267.3466,80,-0.22910934865900856,0.03689455938697394,9.698348659004033,1.3534105747126715,0.21815892720306962,217.29379532567503,-0.1867495847916647,-0.10789549576792577,0.9764646202362554,0
66,-0.2157,0.049,9.6792,-0.0349,-0.0175,0.0,0,0,0,0.2903,1.277,271.2527,80,-0.23018475095785917,0.036151111111111855,9.698446513410165,1.3597188505747408,0.21375593869732243,207.0860137164794,0.20252014498427498,-0.0536799089586173,0.9778057364577807,0
67,-0.2354,0.0196,9.7086,-0.0349,-0.0175,0.0,0,0,0,0.1158,1.3888,270.0073,80,-0.232362681992342,0.03579816091954097,9.698011340996368,1.3725745593870018,0.21166183908046415,209.9570498850618,-0.1699433912328483,0.09949464478322897,0.9804183083948087,0
68,-0.2256,0.0392,9.7086,-0.0524,-0.0175,0.0,0,0,0,0.2315,1.331,225.0116,80,-0.23195318007663318,0.03407846743295089,9.70039992337185,1.3698443678161203,0.20143478927203481,208.75213065134537,0.03254505879243207,0.19693112222125864,0.9798770087357254,0
69,-0.2452,0.0686,9.7086,-0.0349,-0.0349,0.0,0,0,0,0.4051,1.4466,180.0035,81,-0.23242842911877876,0.03254651340996236,9.699514482758822,1.3727577777778064,0.19238750957854805,206.48594942529164,0.12848920198123065,-0.14899580036286617,0.9804543724459877,0
70,-0.2059,0.0294,9.6792,-0.0349,-0.0175,0.0,0,0,0,0.1742,1.219,1.2357,78,-0.2315309578544109,0.03027111111111174,9.69975563218411,1.3673713409961972,0.17891524904214934,216.42981670498534,-0.1904547443264332,0.0673872370197691,0.9793803911914892,0
71,-0.2648,0.0098,9.6988,-0.0349,-0.0175,0.0,0,0,0,0.0579,1.5639,178.4811,80,-0.23189747126437263,0.02876168582375539,9.702242298850775,1.369206973180105,0.16997118773946715,222.3866428352537,-0.1573842622168556,0.12377780920755561,0.9797495843092938,0
72,-0.2452,0.0294,9.6792,-0.0524,-0.0349,0.0,0,0,0,0.1742,1.4511,180.0035,80,-0.231542375478932,0.02825103448275921,9.703242222222423,1.367002758620718,0.16692436781609546,216.12699586207344,-0.16198197307566417,0.12133371059103107,0.979305861859678,0
73,-0.2256,0.0392,9.7576,-0.0349,-0.0349,0.0,0,0,0,0.2304,1.3243,270.0048,81,-0.2332882758620738,0.026719080459770672,9.704324904214761,1.3771352490421742,0.15784858237548222,200.91177019157507,0.19028718387377516,-0.02879016674576671,0.9813062284282817,0
74,-0.2648,0.0,9.7184,-0.0349,-0.0175,0.0,0,0,0,0.0,1.5608,180.0035,80,-0.2331738697318056,0.027184674329502487,9.704431494253075,1.37644773946363,0.16061923371647846,201.72524068965936,0.15217629366963162,0.11891416530715238,0.9811736833681778,0
75,-0.2059,0.0294,9.7086,-0.0349,-0.0349,0.0,0,0,0,0.1736,1.2153,198.4432,80,-0.233590804597706,0.026816704980843473,9.705739770115144,1.3787027586207183,0.15842076628352825,217.43707685824205,-0.14997610724227575,-0.11813325038237063,0.9816066943590745,0
76,-0.2648,0.0,9.7086,-0.0524,-0.0175,0.0,0,0,0,0.0,1.5623,315.0028,79,-0.23628130268199726,0.02785302681992395,9.704938007663038,1.3946485057471554,0.16456283524904558,214.02836766283968,0.16140058685941353,0.06825186245993624,0.9845260452787356,0
77,-0.1961,0.0294,9.6988,-0.0349,-0.0349,0.0,0,0,0,0.1738,1.1586,268.8243,80,-0.23645149425287848,0.025487509578544596,9.707080153256907,1.3953674329502204,0.15052643678161234,217.588161839085,-0.11928912689993314,-0.12740089214064285,0.9846517744285134,0
78,-0.2354,0.0196,9.689,-0.0349,-0.0175,0.0,0,0,0,0.116,1.3916,270.0073,79,-0.23787103448276356,0.02626850574712699,9.703606130268403,1.4041986206896844,0.1552259770114975,221.7902447509625,-0.05026545541555712,0.15802642753151103,0.9861546695085385,0
79,-0.2354,0.0294,9.7086,-0.0349,-0.0349,0.0,0,0,0,0.1736,1.3888,223.6244,79,-0.23633471264368308,0.02820597701149484,9.706317088122809,1.3947734865900672,0.166623524904218,239.8349390038364,0.08347777053160373,0.15393770686781635,0.9845479390214329,0
80,-0.2059,0.049,9.7184,-0.0349,-0.0349,0.0,0,0,0,0.2891,1.214,180.0035,79,-0.23557088122605851,0.02888934865900443,9.703546053640046,1.3906777777778065,0.17074674329502273,242.1924288888939,-0.1716762749743885,-0.05119198852000265,0.9838224620948061,0
81,-0.2256,0.0392,9.6694,-0.0349,-0.0349,0.0,0,0,0,0.2325,1.3364,271.3104,81,-0.23647678160920033,0.028769195402299448,9.7040491954025,1.395940919540259,0.17003425287356677,247.76429494253387,-0.1587378630357922,0.07117846247283206,0.984751703384581,0
82,-0.255,0.0294,9.7184,-0.0349,-0.0175,0.0,0,0,0,0.1735,1.503,269.2442,80,-0.23622521072797426,0.029820536398468052,9.70452980842932,1.3943800766283811,0.17623808429119142,252.7626729501968,0.023714098659785462,0.17389306394394133,0.9844789707438866,0
83,-0.2648,0.049,9.689,-0.0349,-0.0175,0.0,0,0,0,0.29,1.5655,89.9889,79,-0.2347967049808478,0.03265164750957922,9.70545348659024,1.3858176245211016,0.1929312643678201,250.84096306513928,0.16258993187983983,-0.08598337097793952,0.982940168050212,0
84,-0.2354,0.0196,9.689,-0.0349,-0.0175,0.0,0,0,0,0.116,1.3916,180.0035,80,-0.2335475862069014,0.03353026819923441,9.704687509578747,1.3785742528735918,0.19812145593870145,235.87339187739954,-0.18491373174768455,-0.04799363906118419,0.9815821526600869,0
85,-0.2452,0.0098,9.7184,-0.0349,-0.0349,0.0,0,0,0,0.0578,1.4452,360.0168,80,-0.23540367816092442,0.03401088122605435,9.703786360153458,1.3896672796935157,0.20097172413793518,232.41588145594355,0.1797944262459284,-0.011157031298200304,0.9836409329341212,0
86,-0.2256,0.049,9.7086,-0.0349,-0.0349,0.0,0,0,0,0.2894,1.331,360.0168,80,-0.23491609195402788,0.037390191570882005,9.698507126436985,1.3874943295019444,0.22102521072797393,231.28037425287835,0.06647712446029637,-0.1697226691230335,0.9832471751849804,0
87,-0.2354,0.049,9.7086,-0.0349,-0.0349,0.0,0,0,0,0.2894,1.3888,315.0016,80,-0.23214045977011977,0.03993593869731883,9.701946513410164,1.3706684291188025,0.23600590038314662,237.3275579310394,0.027211312170857583,-0.19692350864107092,0.9800411604797169,0
88,-0.2452,0.049,9.7086,-0.0349,-0.0349,0.0,0,0,0,0.2894,1.4466,134.9998,81,-0.23010229885057948,0.041257624521073656,9.702982835249244,1.3584786973180356,0.24383854406130773,245.76477463602043,0.15834893229688102,0.1390362697596009,0.9775451556484607,0
89,-0.2157,0.0294,9.7184,-0.0349,-0.0175,0.0,0,0,0,0.1735,1.2718,271.2503,80,-0.22748827586207365,0.04225639846743383,9.703463448276063,1.343035172413821,0.24974291187739978,237.75186582375972,0.12025013687535917,-0.19111310593042605,0.9741743608425973,0
90,-0.2256,0.049,9.6792,-0.0524,-0.0175,0.0,0,0,0,0.2903,1.335,223.6761,80,-0.22693785440613498,0.03913992337164832,9.70477011494273,1.3395881226053918,0.23128681992337644,240.10218873563716,0.05216364403217354,0.22313760986863207,0.9733902410150816,0
91,-0.2157,0.0294,9.7184,-0.0349,-0.0349,0.0,0,0,0,0.1735,1.2718,270.6352,80,-0.22358858237548357,0.03864429118774026,9.704101762452309,1.3199473563218664,0.22838298850575184,243.5152659003882,0.010381585903797058,-0.24800925825035783,0.9687020339073462,0
92,-0.2452,0.0196,9.6792,-0.0349,-0.0349,0.0,0,0,0,0.1161,1.4511,1.479,79,-0.2229410727969395,0.03834390804597781,9.701225593869934,1.3165542528735905,0.22666980842912346,243.12354068966022,-0.08621688746419849,-0.23627292210080222,0.9678542011056903,0
93,-0.2256,0.049,9.7282,-0.0349,-0.0349,0.0,0,0,0,0.2888,1.3283,270.66,80,-0.22389141762452575,0.0375854406130276,9.701616091954223,1.322111800766311,0.22219111111111572,244.62713432950702,0.2250286562357494,-0.09970792580746556,0.9692370367479288,0
94,-0.2059,0.0392,9.6988,-0.0349,-0.0349,0.0,0,0,0,0.2317,1.2165,244.1709,80,-0.2211951724137977,0.03607601532567124,9.70110544061323,1.3063220689655444,0.21328827586207338,242.16423034483265,-0.252508544263852,-0.06760442406547748,0.9652300642440254,0
95,-0.2059,0.0392,9.6988,-0.0349,-0.0349,0.0,0,0,0,0.2317,1.2165,225.0106,80,-0.22034919540230344,0.03619616858237623,9.698401992337365,1.3016937164751228,0.21406559386973625,248.97767180077145,-0.1867787369622776,-0.18920537352598038,0.964009870306145,0
96,-0.2452,0.049,9.689,-0.0349,-0.0175,0.0,0,0,0,0.29,1.4496,315.0007,81,-0.2211095785440659,0.035783141762452855,9.698777471264568,1.3061144061302954,0.211619463601537,247.83990091954539,-0.24610609774966102,0.08869916002278114,0.9651757599845157,0
97,-0.1961,0.0588,9.6792,-0.0349,-0.0175,0.0,0,0,0,0.3483,1.1609,360.0168,80,-0.22328873563218854,0.03702973180076705,9.697861302682194,1.3191329501915983,0.2190170114942574,237.93245931034977,0.16831470876107335,-0.18351776408490414,0.9684995555393676,0
98,-0.1863,0.049,9.689,-0.0349,-0.0175,0.0,0,0,0,0.29,1.1018,315.0131,80,-0.22391302681992806,0.03555034482758695,9.696366896551925,1.3230380842912153,0.21028812260536833,240.16544789272533,0.04061603688236626,0.2418444017788422,0.9694646063040178,0
99,-0.2059,0.0098,9.7478,-0.0349,-0.0175,0.0,0,0,0,0.0576,1.2104,270.009,80,-0.2236763984674376,0.03375555555555626,9.696269272030854,1.3216519540230158,0.19969693486590454,246.3623129501967,0.06165089678304812,0.23874320746866062,0.9691237525793195,0
100,-0.2256,0.0294,9.6792,-0.0349,-0.0175,0.0,0,0,0,0.1742,1.335,225.0124,82,-0.2219021455938743,0.03401088122605434,9.694722298850778,1.3113881226053912,0.201241685823759,252.30891586207423,0.14256060687719652,0.21324431045708958,0.9665419480935558,0
101,-0.2648,0.0,9.689,-0.0349,-0.0349,0.0,0,0,0,0.0,1.5655,45.0042,80,-0.22321325670498549,0.0340784674329509,9.693498237548095,1.3192639080460045,0.2016625287356364,260.2567675862123,-0.2189640554422666,0.11832244860899872,0.9685321577415211,0
102,-0.2256,0.0196,9.689,-0.0349,-0.0175,0.0,0,0,0,0.116,1.3337,315.0046,81,-0.22431693486590504,0.035512796934866635,9.691710957854607,1.3260150957854684,0.21016819923372085,257.1642032950245,0.21859668965217222,-0.10462381110043925,0.9701903655592192,0
103,-0.255,0.0588,9.6694,-0.0349,-0.0175,0.0,0,0,0,0.3487,1.5106,270.001,82,-0.26290130268199774,-0.02874758620689709,9.699870957854607,1.5547020689655493,-0.17333701149425612,260.64278773946904,-0.01599734786418091,0.0017571660390377022,0.9998704902280213,0
104,-0.2452,0.0392,9.689,-0.0349,-0.0349,0.0,0,0,0,0.232,1.4496,225.0128,81,-0.22965977011494726,0.07372275862069116,9.563910881226253,1.397426130268228,0.3338370114942598,264.17567808429664,0.16569429758963783,0.04798628439456032,0.9850089929824402,0
105,-0.2354,0.0196,9.7184,-0.0349,-0.0349,0.0,0,0,0,0.1156,1.3874,315.0035,81,-0.1856581609195441,0.10353279693486803,9.774669501915913,0.9737070498084495,0.6643524904214693,269.7988540996224,0.5225226912153148,-0.20756044331891835,0.8269756341841994,0
106,-0.2059,0.0294,9.6792,-0.0349,-0.0175,0.0,0,0,0,0.1742,1.219,251.5743,81,-0.14059287356322137,0.07577494252873719,9.805549042145799,0.7076737931034633,0.488183448275872,256.1343285057524,0.07172206893689147,-0.7564837520603841,0.6500679023733252,0
107,-0.2354,0.0686,9.7086,-0.0349,-0.0175,0.0,0,0,0,0.4051,1.3888,269.2974,82,-0.11292160919540473,0.06066314176245333,9.792472260536602,0.5862278927203193,0.39461800766284316,253.44187793103976,-0.4309112992843826,0.7129236454515747,0.5532226747929649,0
108,-0.2157,0.0392,9.6988,-0.0349,-0.0349,0.0,0,0,0,0.2317,1.2744,180.0035,81,-0.10990574712643922,0.05121892720306617,9.768120996168786,0.6171472796935003,0.3361548659003899,247.820606053645,-0.7617462570485527,0.2912665128118547,0.5787110318517714,0
109,-0.2157,0.0392,9.689,-0.0524,-0.0175,0.0,0,0,0,0.232,1.2757,333.9674,81,-0.11421471264368072,0.029013103448276435,9.671020536398668,0.756631417624538,0.20356750957854802,239.6215763984724,0.47412685233718055,0.5513207833423583,0.6864758712056861,0
110,-0.2059,0.0294,9.6792,-0.0349,-0.0175,0.0,0,0,0,0.1742,1.219,315.0051,82,-0.16838942528735998,0.03300229885057534,9.653552490421657,1.1110230651341237,0.22286306513410392,235.52775233716966,-0.4418806667910086,0.04063293929992568,0.8961531345479868,0
111,-0.2059,0.049,9.6792,-0.0349,-0.0175,0.0,0,0,0,0.2903,1.2189,134.991,81,-0.23156145593870234,0.032422605363985335,9.646877624521272,1.5070291954023312,0.2176167816091997,234.94133386973667,-0.049625421686219896,0.03997569387447477,0.9979675653154861,0
112,-0.2354,0.0392,9.6792,-0.0349,-0.0175,0.0,0,0,0,0.2322,1.393,224.3157,81,-0.296134636015332,0.02120659003831455,9.61570429118794,1.9258214559387383,0.14332812260536654,233.21839409962166,-0.256575878366711,-0.23452987261448882,0.9376377538750146,0
113,-0.255,0.0392,9.6988,-0.0524,-0.0175,0.0,0,0,0,0.2317,1.506,270.0041,81,-0.3719604597701229,0.011607279693486804,9.595239463601732,2.4023477394636523,0.07986421455938825,229.5917665134147,0.7149875823301539,0.18676320012498276,0.6737301122799523,0
114,-0.2157,0.049,9.6988,-0.0349,-0.0175,0.0,0,0,0,0.2897,1.2744,225.0103,82,-0.4457554789272125,-0.010106130268199493,9.553809961686023,2.8778465134100224,-0.058246513409963,223.1992577777824,0.9551237478285876,0.14062244627840068,0.26069897187474866,0
115,-0.2354,0.0294,9.7184,-0.0349,0.0,2.8972,0,0,0,0.1735,1.3874,230.4378,80,-0.5259539463601643,-0.03843425287356407,9.525063371647708,3.3792276628353197,-0.2332702681992389,204.44035938697743,0.9447668968324976,0.22803532694199732,-0.23540475848195855,0
116,0.608,1.4318,9.5321,-1.4486,0.192,0.3491,0,0,0,8.5429,-3.6096,229.6399,80,-0.6162044444444574,-0.06272459770115074,9.522883371647708,3.9151629118774767,-0.38148551724138746,199.30717885057885,0.13086398710109312,0.703350139600869,-0.698693922975893,0
117,-0.6178,-1.5887,12.5525,0.2443,1.2741,1.2566,0,0,0,-7.2137,2.7957,166.3782,82,-0.7160599233716625,-0.0863599233716493,9.53169946360173,4.4961531034483695,-0.5241211494252984,192.6116350191611,0.12049300633863426,0.1775250670122423,-0.9767119769951512,0
118,-1.0297,-0.7551,6.2566,0.1396,-0.2443,0.5061,0,0,0,-6.8822,9.2803,147.941,82,-0.8078156321839247,-0.10485310344827799,9.520109961686023,5.041924367816197,-0.6393617624521204,183.31377823755173,0.14638011985582847,0.28860362703794445,-0.946192795878058,0
119,-1.4416,0.1569,8.6004,0.0349,-0.0524,0.2793,0,0,0,1.0453,9.5144,153.0325,80,-0.9045334099617046,-0.13012819923371918,9.571720306513608,5.566079693486706,-0.783526666666683,178.89643157088494,-0.742284496554875,0.1307445423928429,-0.6572058968152689,0
120,-1.5396,0.0,9.1888,-0.0349,-0.0698,0.0698,0,0,0,0.0,9.5126,156.6819,81,-1.3945727969348947,-0.08463256704981025,9.411462528735829,7.828831494253034,-0.6378105747126572,170.87078498084645,0.008528804793677246,0.023657042577470325,0.9996837519062112,0
121,-1.471,-0.1177,9.2575,-0.1047,-0.1396,0.1571,0,0,0,-0.7284,9.0287,160.5271,84,-1.3551068199233995,-0.22545448275862529,9.447179693486786,7.866429348659166,-1.4287994636015615,166.59594390804943,0.012395285389955824,0.0011377602669554745,0.9999225281998984,0
122,-1.726,0.1275,10.7383,-0.1047,-0.1222,0.1047,0,0,0,0.6802,9.1311,159.9618,82,-1.3015304980843176,-0.25190344827586725,9.479625057471461,7.792667279693648,-1.5502068965517561,158.33793969348991,0.01883796188374678,0.058308425111229405,0.9981208638001285,0
123,-1.1768,-0.353,9.5223,-0.0349,-0.0698,0.1047,0,0,0,-2.1234,7.0408,165.6019,83,-1.2349823754789524,-0.26938214559387524,9.514497547892919,7.61467862068981,-1.6215209195402633,160.33252551724473,-0.2355589695626752,-0.026326555339007685,0.9715034144780721,0
124,-1.1278,-0.3628,9.2575,-0.1745,-0.1571,-0.1222,0,0,0,-2.2447,6.9409,167.0454,85,-1.1554774712643914,-0.2820283524904272,9.547832107279891,7.3330377777779265,-1.6671115708812603,164.76576099617202,0.08314869432621971,0.49070418999573917,0.8673498097956039,0
125,-1.2258,-0.255,9.6792,-0.1222,-0.0349,-0.0349,0,0,0,-1.5091,7.2159,166.3048,84,-1.0616594636015542,-0.2858920306513469,9.583068122605564,6.939342758620832,-1.6636960153257045,160.26204528735965,-0.7916822888568561,-0.0323343960945922,0.6100767495484216,0
126,-1.1572,-0.4021,9.6007,0.0,-0.0175,0.0873,0,0,0,-2.3983,6.8673,166.6215,82,-0.9589559386973376,-0.2846904214559445,9.620393333333533,6.465542145594002,-1.6332490421456274,161.20986068965854,-0.5407135010008285,-0.8214267299637539,0.18134783466168328,0
127,-1.3239,-0.2354,10.0224,-0.0175,0.0,0.0698,0,0,0,-1.3453,7.5234,169.0387,83,-0.848283065134117,-0.2762157088122662,9.659777701149626,5.917041379310468,-1.5627298850575033,166.49827287356666,-0.9336972383430946,0.005730887775461157,-0.358017630900747,0
128,-1.3827,-0.1667,9.9734,-0.1047,-0.0349,-0.0698,0,0,0,-0.9577,7.8928,167.2052,84,-0.7211643678161067,-0.2618045977011548,9.700320076628554,5.243966666666775,-1.4600109578544362,171.01322804598058,0.10247795776255038,0.4964269786019668,-0.8620084240243475,0
129,-1.2553,-0.2354,9.5811,-0.0175,-0.0524,-0.0349,0,0,0,-1.4073,7.4623,166.6537,84,-0.5824276628352612,-0.24126934865900873,9.742876551724342,4.474679846743388,-1.3239938697318276,177.22139333333703,-0.06475654813066713,-0.2263976864048787,-0.9718799705029005,0
130,-1.1278,-0.2157,9.3261,0.0175,-0.0175,0.0349,0,0,0,-1.3253,6.8937,165.8842,82,-0.3758032950191651,-0.11935938697318255,9.774794329502118,3.2758146360153937,-0.5863383141762574,184.948824597705,0.9107803131736849,-0.39060415717001035,-0.13381933170043248,0
131,-1.2553,-0.3432,9.6988,-0.0873,-0.0873,0.0,0,0,0,-2.027,7.3704,170.6286,83,-0.22249034482759097,-0.16785517241379655,10.004827279693695,2.3083593869732284,-0.7170734099617007,189.69009931034873,-0.24709915780168326,-0.6254437147901774,0.7401095634047449,0
132,-1.118,-0.2648,8.4435,-0.2793,-1.2043,-0.4189,0,0,0,-1.7963,7.5392,192.0441,84,-0.09043287356322072,-0.17981195402299213,9.880465440613232,1.6900077394636381,-0.8928312643678342,193.41551762452508,-0.024509191881392067,0.11637640195079299,0.9929027306752201,0
133,7.5903,-1.7946,12.5623,0.0,0.0,-0.1571,0,0,0,-8.1307,-30.8877,229.8638,84,0.00668804597701117,-0.14096406130268485,9.841920613027025,1.1735533333333596,-0.6523931034482894,197.2186845210769,-0.29548792836026144,0.24972200508233566,0.922131121029444,0
134,-0.1863,1.6867,9.6497,-0.0524,-0.0175,0.0,0,0,0,9.9157,1.0897,214.4932,81,0.08001708812260655,-0.10439325670498303,9.819207969348863,0.7570658237548069,-0.43381747126437686,201.0748974712685,0.7267931916294474,0.00942532189527087,0.6867916859632561,0
135,-0.1961,0.0588,9.7184,-0.0349,-0.0175,0.0,0,0,0,0.3469,1.1562,215.0472,80,0.13944214559387236,-0.07054467432950343,9.788231954023193,0.40436735632184895,-0.23645808429119297,204.71948628352914,-0.7996681156458101,-0.4535835765453454,0.3934372172377851,0
136,-0.2059,0.0196,9.689,-0.0349,-0.0175,0.0,0,0,0,0.116,1.2177,217.5963,80,0.16293501915709116,-0.020979540229885497,9.841902605364188,0.1564285057471311,0.047430574712644544,207.967079923376,0.8028117705174355,0.575519178899472,0.1557913214448676,0
137,-0.2059,0.0392,9.7282,-0.0524,-0.0349,0.0,0,0,0,0.231,1.2128,213.6655,81,0.19233961685824125,0.005065593869731864,9.835059157088327,-0.0944870498084292,0.1900791570881262,210.9680307279737,-0.8824294573630346,-0.4608871739841673,-0.09434651893349529,0
138,-0.2452,0.0196,9.7184,-0.0349,-0.0175,0.0,0,0,0,0.1156,1.4452,216.705,80,0.20924927203065552,0.026032720306513865,9.805483065134304,-0.27983134099617313,0.29453900383142323,213.6747777777822,0.960064162661627,0.044653379624911387,-0.27619355398144735,0
139,-0.2256,0.0392,9.6988,-0.0349,-0.0175,0.0,0,0,0,0.2317,1.3323,214.9739,80,0.20134068965517637,0.048244597701150395,9.793048888889095,-0.35543992337165353,0.4074746360153339,215.96078061303132,-0.6470026699164559,0.6784405496985042,-0.34800282419223133,0
140,-0.1765,0.0294,9.6988,-0.0349,-0.0349,0.0,0,0,0,0.1738,1.0428,213.8615,80,0.17508620689655524,0.05885287356321956,9.771392567050011,-0.34156804597701784,0.44719210727970254,217.6927981609241,-0.56864212202663,-0.7512952880243032,-0.3349649642119763,0
141,-0.2157,0.0588,9.6988,-0.0349,-0.0349,0.0,0,0,0,0.3476,1.2744,214.4212,81,0.11410275862069198,0.07572613026820076,9.770066206896756,-0.16568482758620962,0.5247200000000105,218.8530626053685,0.4835334309731923,-0.8596477392959808,-0.1649278189227111,0
142,-0.2354,0.0588,9.7086,-0.0349,-0.0175,0.0,0,0,0,0.3473,1.3888,214.7994,80,0.0232937164750963,0.09161187739463786,9.772122222222427,0.1587657471264401,0.5928108045977132,219.35239103448734,0.8370738109809329,-0.523747985440014,0.15809959746117114,0
143,-0.2452,0.0392,9.7086,-0.0349,-0.0175,0.0,0,0,0,0.2315,1.4467,213.0679,80,-0.0905871264367834,0.10056904214559591,9.752105977011698,0.6120866666666791,0.6143865134099743,219.1229540996214,0.5769158580583332,-0.5805427529054735,0.5745765438736179,0
144,-0.2157,0.1863,9.7282,-0.0524,-0.0175,0.0,0,0,0,1.0973,1.2703,218.171,81,-0.22139524904215002,0.1081542528735654,9.711309425287558,1.155570727969372,0.6218844444444571,217.70585448276313,-0.239232047557127,-0.3248024910290392,0.9150253380333002,0
145,-0.255,0.0686,9.7184,-0.0349,-0.0349,0.0,0,0,0,0.4047,1.5029,217.5178,80,-0.3902964750957933,0.1036783141762473,9.684177701149627,1.8878662068965901,0.557186973180088,215.77853363985125,0.17071811862577096,-0.2608917155760852,0.9501530596259975,0
146,-0.2256,0.049,9.7086,-0.0349,-0.0175,0.0,0,0,0,0.2894,1.331,216.2854,80,-0.5825167816092072,0.09697555555555755,9.572066283525103,2.7993432950192143,0.46045900383142724,214.47811639847188,-0.6218357818029222,-0.70759332206216,0.33560683998182284,0
147,-0.1961,0.0392,9.689,-0.0349,-0.0175,0.0,0,0,0,0.232,1.1598,213.1274,80,-0.22470252873563687,-0.018026206896552037,9.703595708812461,1.3273829885057746,-0.10434283524904397,215.17826835249488,0.0050196345540527475,0.24096446295513835,0.9705209584865674,0
148,-0.2157,0.0196,9.6792,-0.0349,-0.0175,0.0,0,0,0,0.1161,1.277,214.3495,81,-0.22475578544061772,0.05736873563218511,9.701601072797136,1.3271425287356597,0.33880789272031353,215.13847501916155,0.014616047789690322,0.24080694370937747,0.9704629755989448,0
149,-0.2452,0.0588,9.7086,-0.0349,-0.0175,0.0,0,0,0,0.3473,1.4466,213.6944,80,-0.22594260536398936,0.05926160919540352,9.701218084291389,1.3342268199233995,0.3500245977011567,215.04766268199683,0.03535597137777164,0.23168688871929627,0.9721476949946991,0
150,-0.1961,0.0294,9.6988,-0.0349,-0.0175,0.0,0,0,0,0.1738,1.1586,216.4267,80,-0.22892076628352967,0.05859340996168705,9.699753716475296,1.3519990038314456,0.3461331034482831,215.26183019157537,-0.013607721720382356,0.2166288065820272,0.9761592032391168,0
151,-0.2354,0.0392,9.689,-0.0349,-0.0349,0.0,0,0,0,0.232,1.3916,216.1818,80,-0.22884283524904692,0.05752689655172533,9.700504674329704,1.35148252873566,0.3398412260536469,215.08891241379757,0.02392322303903523,0.2162405915104167,0.9760469691478222,0
152,-0.2452,0.0686,9.6694,-0.0349,-0.0175,0.0,0,0,0,0.4068,1.4525,214.4237,80,-0.23046804597701626,0.05556643678161035,9.699708659004031,1.3611839080460053,0.3283400000000068,215.04530306513857,0.03187551648773491,0.2056248481221831,0.9781116364113911,0
153,-0.2354,0.0588,9.6792,-0.0349,-0.0349,0.0,0,0,0,0.3483,1.393,214.3683,80,-0.23270750957854888,0.05555816091954139,9.701158007663036,1.3741851340996454,0.3283096551724206,215.20957731801215,-0.002047305323223257,0.19533621107598279,0.9807342010878343,0
154,-0.2059,0.0294,9.738,-0.0349,-0.0175,0.0,0,0,0,0.1731,1.2116,216.2711,80,-0.22944567049808906,0.05355203065134211,9.700527203065334,1.355017318007691,0.3165144827586273,215.01158781609638,0.03991240215625789,0.21035546775287572,0.9768098982609594,0
155,-0.2256,0.0686,9.7086,-0.0349,-0.0175,0.0,0,0,0,0.4051,1.3309,214.3197,81,-0.22942436781609674,0.05033946360153361,9.699776245210929,1.354989195402327,0.2976216091954085,215.01654674329947,0.03887376514728281,0.21057781712865978,0.9768038765876201,0
156,-0.1961,0.0785,9.7086,-0.0349,-0.0175,0.0,0,0,0,0.463,1.1574,212.4288,80,-0.22973279693487064,0.04915318007662937,9.698657318007866,1.356961226053668,0.29069019157088727,214.86879816092403,0.06882485889431998,0.20073835051735214,0.9772242595380805,0
157,-0.2648,0.0588,9.6988,-0.0349,-0.0175,0.0,0,0,0,0.3476,1.5639,217.5779,80,-0.22944183908046453,0.04762099616858337,9.70117011494273,1.3548400000000282,0.281622681992343,214.79505678161365,0.08424187600309528,0.19702773223494424,0.9767719176234717,0
158,-0.2452,0.049,9.7184,-0.0349,-0.0175,0.0,0,0,0,0.2891,1.4452,216.2355,80,-0.22943095785441087,0.05379233716475207,9.703225823754991,1.3545304214559668,0.3178656704980909,214.98677800766728,0.04521868031103377,0.20976551469633015,0.9767055338202565,0
159,-0.2452,0.049,9.6988,-0.0349,-0.0175,0.0,0,0,0,0.2897,1.4481,214.3444,80,-0.21231739463601973,0.11786896551724378,9.699717088122807,1.2565170881226315,0.6915755555555696,215.33021072797382,-0.04041537236747241,0.3064777817022465,0.9510194356580042,0
160,-0.255,0.049,9.7086,-0.0349,-0.0349,0.0,0,0,0,0.2894,1.5045,214.4048,80,-0.1973295019157129,0.2751024521072852,9.696185977011694,1.183365057471289,1.5602482758621004,216.1369108812305,-0.304616785574568,0.22349498503125279,0.9258826089802625,0
161,-0.2452,0.0686,9.6792,-0.0349,-0.0175,0.0,0,0,0,0.4064,1.451,214.5068,80,-0.2297245977011542,0.1919754789272069,9.695388505747328,1.3664609961686107,1.0963861302682212,216.43816490421906,-0.19185355010753757,0.06608529139668137,0.9791960730988203,0
162,-0.2256,0.049,9.7086,-0.0349,-0.0349,0.0,0,0,0,0.2894,1.331,215.844,81,-0.22471402298851043,0.14119394636015598,9.698443601532768,1.3304767049808706,0.8215133333333493,216.57299555556006,-0.23341423961957103,0.04656196575109227,0.9712619502936433,0
163,-0.1863,0.049,9.6988,-0.0349,-0.0175,0.0,0,0,0,0.2897,1.1007,213.1556,80,-0.23957701149425786,0.033419540229885594,9.702069578544263,1.411265593869761,0.2086190804597735,216.2896403065179,-0.14088495557538475,0.07339150888110384,0.9873019374622318,0
164,-0.2256,0.0686,9.6988,-0.0349,-0.0175,0.0,0,0,0,0.4056,1.3323,216.2091,80,-0.2501006130268251,-0.06596773946360303,9.705830881226257,1.467060996168613,-0.35700773946360964,215.93655340996617,-0.06962738466144489,0.07664529746785735,0.9946243138397889,0
165,-0.2354,0.0588,9.7282,-0.0349,-0.0175,0.0,0,0,0,0.3466,1.386,217.6584,80,-0.2620228352490476,-0.15650229885057798,9.708248122605568,1.5318806130268516,-0.8726062835249226,215.39347187739912,-0.00751480713762482,0.03817323805891419,0.9992428791689144,0
166,-0.2059,0.0294,9.6694,-0.0349,-0.0175,0.0,0,0,0,0.1743,1.2202,212.4695,81,-0.2715656704980899,-0.23491747126437273,9.70622735632204,1.5839248275862396,-1.3187513409961964,214.5342873563263,-0.00809885956542053,-0.010332284579045947,0.9999138224712754,0
167,-0.2452,0.0392,9.6988,-0.0349,-0.0349,0.0,0,0,0,0.2317,1.4481,217.5479,80,-0.2809632183908104,-0.30561386973180715,9.704499616858438,1.6356254406130608,-1.7215691954023344,213.6077888888933,-0.06477008502513322,0.0013287215219788813,0.9978993288829059,0
168,-0.2157,0.0883,9.6988,-0.0349,-0.0175,0.0,0,0,0,0.5214,1.2744,214.4193,80,-0.2872285057471324,-0.36750260536399226,9.706909808429321,1.6689565517241722,-2.074754406130311,212.66697049808872,-0.05609966531318981,0.0803576372988709,0.9951861522747848,0
169,-0.2256,0.0588,9.7184,-0.0349,-0.0175,0.0,0,0,0,0.3469,1.3296,217.6071,81,-0.3203468965517307,-0.31432927203065775,9.721697624521275,1.86184743295023,-1.7436145593870092,211.17652559387415,0.2213494798850902,0.1826199273073963,0.9579427800786648,0
170,-0.255,0.0392,9.6497,-0.0349,-0.0175,0.0,0,0,0,0.2329,1.5137,214.3159,80,-0.30001379310345444,-0.35670934865901116,9.750876398467634,1.7309830651341351,-1.9734388505747533,210.18242436782043,0.15217531115763502,-0.04778849620552057,0.9871975153455826,0
171,-0.2256,0.0686,9.6694,-0.0349,-0.0175,0.0,0,0,0,0.4068,1.3363,214.4689,80,-0.21055708812260976,-0.4868542528735732,9.684514099617058,1.2685860536398734,-2.715337624521128,209.89487088123042,-0.2470091451233696,0.1660443218503231,0.9546809757226172,0
172,-0.6472,-1.2945,9.7772,-0.0349,0.0349,3.2987,0,0,0,-7.5425,3.755,211.238,81,-0.09346268199233923,-0.5505354789272143,9.701030957854607,0.5678150957854531,-3.112032260536462,209.54001762452543,-0.4926713245038226,0.6841458143667931,0.5377912891596949,0
173,-0.7453,-3.903,9.8066,-0.0698,0.0,3.5256,0,0,0,-21.7042,4.0394,198.8524,83,-0.044711800766284664,-0.5378937164751068,9.728337088122807,0.2325361685823817,-3.0405139463602158,208.66260038314613,0.243865574880843,0.9420319231348305,0.23044616981613902,0
174,0.1275,-0.2942,9.7674,-0.0349,-0.0175,0.2618,0,0,0,-1.7254,-0.7475,199.1972,83,-0.05353517241379449,-0.5248122605364092,9.780340076628555,0.17522720306513923,-2.9468073563218997,207.4049906513453,0.9829223934650845,0.05892341577658421,0.17433186598579586,0
175,-0.5198,-1.0003,9.689,-0.0349,-0.0175,0.0,0,0,0,-5.8947,3.0546,197.7178,83,-0.05819333333333486,-0.5808552490421576,9.798782605364186,0.15011777777778323,-3.3384134099617544,205.93899310345256,0.16208738398281225,-0.9753774169783983,0.14955458669715227,0
176,-0.2256,0.0294,9.6988,-0.0524,-0.0349,0.0,0,0,0,0.1738,1.3323,199.4309,82,-0.10060084291187996,-0.562513026819935,9.804756704981045,0.36801218390805673,-3.2343247509579207,204.34468275862494,-0.9237637292515213,-0.13127181999307663,0.359761423439239,0
177,-0.2256,0.0196,9.6792,-0.0524,-0.0175,0.0,0,0,0,0.1161,1.335,199.4284,81,-0.17913938697318424,-0.6044371647509702,9.80571593869752,0.7923584674329707,-3.568691111111185,202.46673494253292,0.11601922234357578,0.6925167585030507,0.71201129151104,0
178,-0.2059,0.0392,9.6792,-0.0349,-0.0175,0.0,0,0,0,0.2322,1.219,199.5197,81,-0.28233785440613673,-0.6466574712643811,9.79844850574733,1.3878859003831752,-3.945442298850656,200.42060482759032,0.1457509180396908,-0.10881841784774354,0.9833184742634002,0
179,-0.2354,0.0294,9.7282,-0.0349,-0.0175,0.0,0,0,0,0.1733,1.386,200.646,81,-0.4730735632184012,-0.6125514942528861,9.807855632184111,2.3399540996169117,-3.809377854406208,197.91373057471674,0.6955151690061178,-0.004595058371240638,0.7184967189354147,0
180,-0.2059,0.0686,9.7282,-0.0349,-0.0175,0.0,0,0,0,0.4043,1.2128,199.005,81,-0.6799705747126585,-0.5524103448275975,9.756303371647713,3.5789025287357115,-3.4697663601533284,194.71622988506152,-0.9041246413628558,0.05659476905677166,-0.42350403185317864,0
181,-0.1961,0.0686,9.7184,-0.0349,-0.0175,0.0,0,0,0,0.4047,1.1562,198.7995,81,-0.916542068965537,-0.49133708812261545,9.652893026820124,5.184607586207008,-3.136154482758686,191.36840314176644,-0.43853539055203744,0.12077768419204636,-0.8905613186269535,0
182,0.4119,-2.1575,9.4242,-0.0524,0.0,-0.5934,0,0,0,-12.8954,-2.4396,205.9945,84,-1.219409195402325,-0.38680482758621476,9.497341532567248,7.297972030651496,-2.4682405363985174,187.57331363985062,0.3188087751837194,-0.4206363744290154,0.8493680035020567,0
183,-0.4119,-0.7551,8.9927,-0.1396,0.6807,1.4312,0,0,0,-4.8002,2.6134,193.1645,83,-1.5783873563218724,-0.3091015325670561,9.282857854406323,9.91110804597722,-1.9396227586207286,183.6631966283563,-0.10580889867905646,-0.8776993081136438,-0.4673846397745182,0
184,-2.0692,1.0983,10.7677,0.0175,0.9425,-0.1745,0,0,0,5.8247,10.8238,179.9883,82,-1.9621468199234129,-0.07695831417624684,9.029554176245398,12.704978007663103,-0.42685180076629214,179.40502666667038,-0.9355982543577324,-0.3249101660495108,0.13816399835139115,0
185,-3.4127,0.4021,9.4634,-0.0175,0.9599,-1.1519,0,0,0,2.433,19.8154,171.8714,82,-2.377327126436831,0.17766130268199584,8.811444444444628,15.556392030651665,1.2077708812260783,175.28924781609558,-0.7929347300648756,0.5903016756651922,0.1509915413651016,0
186,-3.1872,-0.8238,9.1006,0.3665,0.384,0.5585,0,0,0,-5.1725,19.2297,170.083,83,-2.812813103448334,0.32755708812261203,8.561697547892898,18.597656245211112,2.1747262068965965,171.33663019157441,-0.11577126848638253,0.9614959054477935,-0.2492441317266702,0
187,-3.0106,-0.9218,8.3258,0.2269,0.5411,-0.0524,0,0,0,-6.3184,19.7702,167.8473,83,-3.3407334865901075,0.22858505747126903,8.451259233716652,21.784206896552174,1.7858291187739828,166.79450773946706,0.9377714887591744,0.27994217150021555,0.20546779671312435,0
188,-3.9815,0.5099,8.4631,-0.0349,0.6632,-0.2793,0,0,0,3.4484,25.1566,162.5082,82,-3.872042528735712,0.31526988505747766,8.434841609195578,24.95051065134151,2.4999667432950696,162.21958421456276,0.4077881319744926,-0.8949116282667263,-0.18122366571105,0
189,-4.3345,-0.5982,8.316,0.4363,0.5236,0.0873,0,0,0,-4.1147,27.4712,156.5951,82,-4.362129501915799,0.2348413026819971,8.326878927203238,27.933775478927778,2.052238007662877,158.24466996168908,-0.37204705845654473,-0.8660346316018958,0.3340134775125115,0
190,-4.7072,0.7649,7.9434,0.3491,0.5411,-0.2967,0,0,0,5.5008,30.5371,148.139,81,-4.810602911877493,0.3168570881226117,8.12339570881243,30.597747816092582,2.554498850574764,153.94375961686143,-0.6835405157567793,-0.003909614788557029,-0.7299021018130865,0
191,-5.4427,1.4416,7.5413,0.5061,0.4887,0.2793,0,0,0,10.8228,35.3347,142.6497,81,-5.1842802298851645,0.4264055172413878,8.069371187739632,32.83763141762519,3.271531954023054,142.67073570881524,-0.039867821004412864,-0.14308949889949207,0.9889064425682808,0
192,-4.9426,0.6767,6.5312,-0.4189,-0.1047,-0.0524,0,0,0,5.9154,36.9725,142.5534,83,-5.448827969348771,0.4711731034482852,8.012345440613194,34.3093632183915,3.559384904214631,135.23967708812546,0.9583085495932766,0.14600374345237235,0.2456168371148938,0
193,-5.5604,0.608,6.747,-0.2269,0.0349,-0.1396,0,0,0,5.1498,39.3821,140.944,83,-5.554366896551838,0.5160075862069069,8.04177394636032,34.89055739463673,3.8836879693487365,148.28584973180386,0.7630748255715414,0.5575328428557165,-0.3269157991229311,0
194,-6.0703,1.0787,7.0608,-0.0698,-0.1571,-0.1571,0,0,0,8.687,40.3629,141.7956,83,-5.488643831417737,0.47589946360154195,8.167988965517411,34.645426896552436,3.7382909578544803,158.05058727969677,-0.5623320345327779,-0.8222376807192855,-0.08779452912110848,0
195,-5.7369,0.863,7.5805,0.2443,-0.3665,0.2618,0,0,0,6.4952,36.9435,142.399,81,-5.259506973180184,0.47069057471265296,8.320020996168754,33.36962314176313,3.874068429118851,165.17374429119118,0.0888557917886242,-0.36289226109951206,0.927584958426828,0
196,-5.3348,1.9613,8.5808,-0.8727,-0.9425,-1.4835,0,0,0,12.876,31.2217,146.1994,85,-4.785886283525001,0.286791647509584,8.373917318007836,30.32009302682054,2.725095862069019,169.9397926436817,0.43771141176643763,0.1324270796952902,-0.8893097258957698,0
197,-5.2956,-0.4511,9.5125,-0.5934,-0.7679,-0.7505,0,0,0,-2.7153,29.0795,151.1985,85,-4.175891187739549,0.189224444444448,8.458781609195578,26.504305440613564,2.178300076628395,172.45404360153614,-0.18700856742719044,0.06479825139087664,0.9802188440983548,0
198,-4.8543,-1.0003,9.3555,0.1571,-0.6807,-0.384,0,0,0,-6.1032,27.2925,153.397,84,-3.521627356321911,0.11791678160919747,8.633979157088302,22.241631340996623,1.616863524904245,172.41030796935223,0.900654920138161,-0.3569038259725516,-0.24787168825236508,0
199,-4.9426,-1.0003,10.7285,0.6283,-0.733,0.1571,0,0,0,-5.327,24.643,153.331,85,-2.870511724137989,-0.015374865900383852,8.837880459770298,18.22512582375516,0.9181585440613182,171.13308490421807,0.0678381495486726,0.8084552508155085,-0.5846350082698137,0
200,-3.0793,-0.2942,8.9044,0.0524,-1.5882,0.0873,0,0,0,-1.8925,19.0679,156.8078,83,-2.075470498084333,-0.22991432950192076,8.866687203065318,12.840167356322102,-0.802332490421475,167.41636498084637,-0.5893978691444488,-0.7612490430666347,0.27038869480456496,0
201,-0.8728,-1.0003,7.1883,-0.5934,-1.9373,-0.2094,0,0,0,-7.9227,6.858,164.0279,84,-1.166855862068989,-0.4671354022988606,8.90287187739482,6.989835708812404,-2.613211954023044,162.15420015326004,0.2694689855325915,-0.7112025568411867,0.6492899113482317,0
202,-0.4217,1.0395,8.7475,0.0349,-1.7453,-0.0349,0,0,0,6.7774,2.7408,159.4158,81,-0.2393441379310393,-0.6236609961685956,8.952318544061487,1.0053274329502127,-3.905498544061386,139.4239170114971,0.19722801255221628,0.4981921056702471,0.8443374544058484,0
203,1.2945,-1.0395,11.2188,-0.384,-1.7279,-0.8203,0,0,0,-5.2941,-6.5546,178.109,85,0.7013157854406273,-0.9592392337164952,9.0495111111113,-4.743921226053736,-6.060430727969476,121.93303486590291,-0.026213234093850832,0.01751626062785446,0.9995028999317401,0
204,2.7164,-2.128,9.385,-0.4538,-1.6232,-0.192,0,0,0,-12.7767,-15.7645,348.7612,86,1.6438727203065469,-1.188806436781634,8.994919616858425,-10.790294865900602,-8.037641455938866,109.7128914176268,0.1978592670745459,-0.049017861089157816,0.9790040652249445,0
205,3.9619,-1.5887,10.0714,-0.1047,-1.0996,-0.2094,0,0,0,-8.9647,-21.2364,356.1578,87,2.5342207662835765,-1.3662796168582663,8.865676398467617,-16.487768888889224,-9.788891417624725,102.51192919540443,0.28354077511573017,-0.6520713570572407,0.7031412192101238,0
206,4.4816,-2.1967,9.179,-0.6458,-0.5585,-0.7156,0,0,0,-13.4597,-25.4021,1.3864,84,3.4252190804598404,-1.6944630651341348,8.711203678161102,-21.673135402299287,-12.063351187739714,100.28064620689865,-0.9202547892726852,0.23529206640871791,-0.3126799742641047,0
207,4.8837,-1.0885,7.6296,-0.733,-0.1745,-0.5585,0,0,0,-8.1204,-32.3642,6.8551,83,4.237631877394723,-2.069026513410005,8.471690957854582,-26.3345650574718,-14.750886896552032,101.73796229885274,0.12833163201615969,0.337052905109247,-0.932698413948199,0
208,5.4525,-2.0888,6.9823,-1.0123,-0.2443,-0.4712,0,0,0,-16.6562,-36.8043,8.6159,84,4.841540076628451,-2.4361788505747635,8.21799348659021,-29.749602375479533,-17.26642582375515,105.99828681992561,-0.06535996161069427,0.06946882401842282,0.9954406852785082,0
209,5.1975,-2.0496,8.4141,-0.1047,0.4887,-0.7156,0,0,0,-13.6911,-30.973,21.9595,84,5.249842375479035,-2.7373287356322407,7.962552873563384,-31.979744750958506,-19.429787586207297,112.01676812260773,0.3979534798549187,-0.745674966500983,-0.5344173202705156,0
210,5.2171,-3.501,7.3844,0.0175,0.2967,0.1047,0,0,0,-25.3677,-32.5563,19.3532,82,5.515450574712756,-3.045618467433013,7.746007203065296,-33.49823302682061,-21.504328275862516,119.1730255172439,-0.4789950025793042,0.1008405993373361,-0.8720062849712376,0
211,5.4819,-2.9224,7.659,-0.0873,-0.3142,0.0873,0,0,0,-20.8865,-33.774,21.7519,84,5.55916697318019,-3.3891869731801467,7.669001609195562,-33.83018559387042,-23.67120314176294,126.52312804597967,-0.4876652610881685,-0.5657885994960173,-0.6648803304416094,0
212,6.3547,-2.893,5.835,-0.3491,-1.1519,0.7679,0,0,0,-26.3741,-44.2996,3.1034,83,5.405697701149536,-3.783066896551802,7.606361839080619,-32.95268505747194,-26.111265900383682,133.57250536398746,-0.0018645759000089073,0.03398011448251108,-0.999420769834442,0
213,5.7663,-3.4029,8.522,1.3265,-0.0698,1.9024,0,0,0,-21.7689,-32.1474,13.4431,83,4.959308505747227,-4.049718007662919,7.664451340996328,-30.532954865901008,-27.676094176245783,138.27204911877683,0.634298826791115,0.02663866399267023,0.7726288759243344,0
214,5.3054,-4.2463,7.708,-1.2741,-0.4189,2.8274,0,0,0,-28.8521,-31.0867,12.758,84,4.44423379310354,-4.281926743295108,7.62429325670514,-27.452879540230448,-29.08519295019217,142.42495164751256,0.3369829406234595,0.5919607763752279,-0.7321372391580716,0
215,4.8347,-5.4329,7.3942,-0.3665,0.0524,-0.2094,0,0,0,-36.3092,-27.7872,357.7464,86,3.993129808429201,-4.46116980842921,7.5302479693488165,-24.638854636015832,-30.16955754789334,149.3029972413824,0.06803521527463925,-0.877864622952897,0.4740515934476979,0
216,4.4424,-4.3443,5.8742,0.3491,0.2443,1.5882,0,0,0,-36.4881,-31.3036,354.3482,83,3.6269025287357066,-4.531379616858331,7.406174176245365,-22.336372720306972,-30.57562114942592,161.05567141762782,0.6319642391009259,0.6972097908896737,0.3384076062755758,0
217,3.6383,-5.7565,7.6982,-0.1047,0.6283,1.2217,0,0,0,-36.7908,-20.7329,335.7992,84,3.239074022988573,-4.66264812260546,7.636596245210887,-20.032757547893134,-31.087070804598337,173.30335486590394,-0.3287967549851096,-0.18640935252966148,-0.9258208504893018,0
218,2.6772,-6.796,8.4631,0.192,0.4363,1.2217,0,0,0,-38.7678,-13.8568,308.6158,84,2.7667240613027393,-4.76398804597711,7.732283141762614,-17.075385517241735,-31.452188965517887,196.59632842912282,0.04934050333046258,-0.19585561291740133,0.9793906746645312,0
219,1.3239,-5.4035,7.404,0.7854,0.7679,1.117,0,0,0,-36.1247,-8.2193,270.094,82,2.263332796934913,-4.741205670498182,7.94131088122622,-13.78348099616887,-30.937628352491057,222.0197876628398,-0.17733350656168212,0.2975174860393106,-0.938102432014429,0
220,-0.5198,-4.7856,8.4631,0.5585,1.2915,-0.9076,0,0,0,-29.489,3.0603,235.6122,83,1.7038857471264723,-4.719825593869829,8.113192337164918,-10.150660766283737,-30.424304367816717,225.61328904215026,-0.625034833732909,0.41073881645584864,0.6637959635889055,0
221,-0.657,-4.1286,8.6397,1.1694,1.5708,-0.9948,0,0,0,-25.5434,3.9256,204.5638,84,1.2908364750958128,-4.350333103448366,8.228459233716645,-7.5943105747128055,-27.959157701150005,229.29834904215033,-0.25657812405750713,0.009732739001485937,-0.9664744901168677,0
222,-0.3236,-5.0602,9.0123,0.576,1.0123,-1.0123,0,0,0,-29.3155,1.7935,180.2002,83,0.808863371647527,-4.274048965517329,8.324012720306687,-4.814141609195507,-27.18935463601589,229.1361226053687,-0.09954950690914534,0.020194308814339448,0.9948276662646939,0
223,-0.9218,-2.8145,9.5517,0.4189,0.9076,-1.0647,0,0,0,-16.4194,5.2894,162.0134,83,0.4251568582375574,-4.0698680459770955,8.513102222222399,-2.4038249808429666,-25.489973563218918,228.66742674329973,0.580540080251996,-0.4588373352026661,-0.672637729424333,0
224,-0.559,-3.3833,8.4631,0.1396,0.576,-1.0123,0,0,0,-21.7916,3.5098,159.0942,84,0.07865103448276095,-3.8719777011495053,8.656916781609375,-0.3008672796934976,-23.988541379310842,225.34991938697783,0.6340937406549194,-0.7142146820217996,-0.2963486393536364,0
225,-0.1275,-2.1673,8.4828,0.9425,0.4189,-1.1694,0,0,0,-14.333,0.8343,163.5438,83,-0.20166413793103788,-3.582053639846817,8.817791417624703,1.4113304214559625,-21.89787839080505,219.38476360153712,0.1372683108172837,-0.07982458450657953,0.9873122335683487,0
226,1.8535,-3.6775,8.3749,0.2269,-0.1396,-0.9774,0,0,0,-23.7085,-11.4559,211.9314,85,-0.3610597701149494,-3.2264909578544736,8.858141915708996,2.033448812260575,-19.805698697318416,209.0875755555599,0.07624193736517307,-0.4397631895083828,0.8948717808380255,0
227,2.4124,-2.7361,9.0417,0.5236,-0.2967,-0.2269,0,0,0,-16.8372,-14.3268,246.028,86,-0.46793095785441535,-2.844069655172473,9.037685517241567,2.784140996168636,-17.187308275862424,195.69439984674736,-0.5707599489120123,-0.7428400862875433,0.34988810628867095,0
228,1.4906,-3.4225,8.3749,0.7854,-0.0873,0.5236,0,0,0,-22.2298,-9.3566,228.3251,83,-0.5185370114942631,-2.4726301915709326,9.173079540230075,3.13497685823761,-14.758957241379617,178.10752206896927,0.5708345547658725,-0.8210384540176362,0.006615747091442246,0
229,-1.9319,-1.8927,10.8265,0.733,0.4189,-0.0349,0,0,0,-9.9169,9.9701,139.8537,83,-0.5139456704980945,-2.159926130268244,9.279910957854598,3.2034055172414435,-12.741826819923638,179.12540750958232,0.996601399011836,0.054494817588586014,-0.06177350842908372,0
230,-2.4909,-0.9316,7.9728,0.925,-0.2967,-0.2269,0,0,0,-6.6653,17.241,139.1962,85,-0.45137938697318913,-1.7901099616858613,9.269702068965708,2.5611734865900893,-10.878109578544288,182.90694613027202,-0.6425007670688643,-0.535236550780408,0.5483745061767668,0
231,-1.4612,-1.0199,9.4536,0.8203,-0.5411,-0.2094,0,0,0,-6.1579,8.7371,138.8238,83,-0.3595320306513483,-1.509076934865932,9.32521532567069,2.0266516475096186,-9.206368505747319,188.57233609195796,-0.43893358071193017,-0.0337663227579322,0.8978848184320808,0
232,-0.608,-1.3631,9.0319,-0.1745,-1.0472,-0.2793,0,0,0,-8.5831,3.8085,179.2516,84,-0.2556306513410015,-1.3308983141762731,9.412243141762648,1.514892413793134,-7.9060707279695155,195.34069547893128,0.047282214421789016,0.029772223979428036,0.998437783178647,0
233,0.8336,-0.559,9.7478,-0.0349,-0.0524,0.0698,0,0,0,-3.2822,-4.88,243.0933,83,-0.18651095785440996,-1.1297786206896787,9.422899463601727,1.093274789272053,-6.7956001532568475,202.14142636015748,0.2168168391045428,0.40522050909742163,0.8881366996625808,0
234,-1.2945,-4.8347,9.8361,-0.0524,-0.0175,-0.2967,0,0,0,-26.1772,6.7364,213.5149,85,-0.20898996168582804,-0.9347260536398665,9.471413793103645,1.2313173180076884,-5.59700965517253,208.2861771647553,0.19611127806597994,0.26912194766860453,0.9429282814182555,0
235,0.9316,0.4805,9.6988,-0.0524,-0.0175,0.0,0,0,0,2.8366,-5.4805,246.4919,80,-0.2450167816092005,-0.7380069731800922,9.52159977011514,1.4534130268199534,-4.3995338697318935,213.4106327969393,0.11435047260287697,-0.02529108957225356,0.9931184874946931,0
236,-0.2648,0.0,9.6694,-0.0349,-0.0175,0.0,0,0,0,0.0,1.5687,226.954,80,-0.2717530268199289,-0.6357090421456074,9.586609731800966,1.6115680459770445,-3.6600288888889674,217.10852061303135,0.038445700069788445,0.013540321940514346,0.9991689485907231,0
237,-0.2059,0.0098,9.6792,-0.0349,-0.0175,0.0,0,0,0,0.0581,1.219,229.9641,81,-0.34149762452107973,-0.44596306513410916,9.6846861302684,2.0194837547893134,-2.407555478927255,219.44787708812714,-0.38799509600392995,0.19397865987492538,0.9010172501068052,0
238,-0.2059,0.0588,9.689,-0.0349,-0.0175,0.0,0,0,0,0.348,1.2177,229.0175,80,-0.4056437547892803,-0.3116847509578612,9.715354022988707,2.4160740996169077,-1.603082758620725,220.8175328735678,-0.4615084861471138,-0.588851844118492,0.6635234908369488,0
239,-0.2059,0.0686,9.7086,-0.0349,-0.0175,0.0,0,0,0,0.4051,1.2152,227.9324,80,-0.4488878160919633,-0.13419762452107603,9.732206283525105,2.6856636781609753,-0.5557023754789414,221.71437409962147,0.20651857876922178,-0.8737785718102755,0.4402965864827206,0
240,-0.2256,0.0588,9.6792,-0.0349,-0.0175,0.0,0,0,0,0.3483,1.335,225.6218,80,-0.36190743295019895,-0.07109080459770291,9.723958544061505,2.1493049808429565,-0.24160827586207576,224.90520536398935,-0.15180369015685202,0.525280396121368,0.8372790126984799,0
241,-0.2157,0.0392,9.7184,-0.0349,-0.0175,0.0175,0,0,0,0.2313,1.2718,227.741,80,-0.19558911877395052,0.003465747126436521,9.74068911877415,1.162200536398492,0.18762252873563423,230.56753616858717,-0.1323230981963321,-0.374639371395792,0.9176796494877119,0
242,-0.2157,0.0294,9.7282,-0.0349,-0.0175,0.0,0,0,0,0.1733,1.2706,228.6994,80,-0.03085095785440692,-0.0024873563218393586,9.70152298850595,0.15141417624521497,0.03847708812260472,235.87045072797423,-0.9575813878921831,-0.2455326912151712,0.1508362791476766,0
243,-0.2059,0.0785,9.6988,-0.0349,-0.0175,0.0,0,0,0,0.4635,1.2165,229.019,80,-0.053066896551725355,0.03826107279693544,9.798535325670702,0.17358252873563682,0.33918015325671075,235.70528505747612,-0.9813460180140923,-0.08444234174589058,0.17271214157769882,0
244,-0.1863,0.0392,9.7184,-0.0349,-0.0175,0.0,0,0,0,0.2313,1.0984,229.2979,81,-0.14347915708812561,0.11253793103448488,9.733351647509782,0.8301601532567225,0.7014359386973315,233.98285892720793,0.04436281849226923,0.6732976441880061,0.7380394451967341,0
245,-0.2452,0.0,9.7086,-0.0349,-0.0175,0.0,0,0,0,0.0,1.4467,229.3696,80,-0.21169241379310783,0.17402191570881567,9.73062298850595,1.2474686590038573,1.0300756321839282,230.55135118774427,-0.11064879367341393,-0.29783401544122085,0.9481833913883837,0
246,-0.2157,0.0392,9.6988,-0.0349,-0.0175,0.0,0,0,0,0.2317,1.2744,226.7274,80,-0.24674666666667178,0.19761662835249436,9.697524750958056,1.4792005363984981,1.1026760153256925,228.05205302682467,-0.02585599616114396,0.08773721935099243,0.9958080376272682,0
247,-0.2059,0.049,9.7184,-0.0349,-0.0349,0.0,0,0,0,0.2891,1.214,227.8366,80,-0.1957799233716516,0.2575689655172466,9.69668061302702,1.1972578544061552,1.4121841379310627,228.7096595402346,-0.2955874304967409,0.21398356707420574,0.9310419453249855,0
248,-0.255,0.0686,9.689,-0.0349,-0.0175,0.0175,0,0,0,0.406,1.5075,227.0896,80,-0.26726766283525455,0.025944827586207447,9.701557931034683,1.5774511877394963,0.1535575478927236,227.7157849042193,-0.00033049156169067653,-0.006646600314361551,0.999977856494627,0
249,-0.2157,0.0392,9.689,-0.0349,-0.0175,0.0,0,0,0,0.232,1.2757,229.8132,80,-0.21462268199234164,0.04777471264367915,9.701346819923572,1.2675200000000264,0.2824638314176304,228.5244027586254,-0.2055148540030448,0.21669018606846896,0.9543631426483944,0
250,-0.2256,0.0588,9.6792,-0.0349,-0.0349,0.0,0,0,0,0.3483,1.335,228.6216,80,-0.21861647509579,0.044711264367817014,9.69910827586227,1.2914242911877662,0.26438022988506293,228.40248406130743,-0.1640173062302596,0.2216698805106383,0.9612287903154839,0
251,-0.1961,0.0294,9.7282,-0.0349,-0.0175,0.0,0,0,0,0.1733,1.1551,230.1704,82,-0.2188210727969394,0.04094911877394721,9.694564444444644,1.293256628352517,0.24224521072797436,228.56209624521546,-0.1959039953096287,0.19155240707034227,0.9617324471843938,0
252,-0.2354,0.0588,9.7086,-0.0349,-0.0175,0.0,0,0,0,0.3473,1.3888,228.6108,80,-0.22099785440613484,0.03989762452107363,9.692446360153458,1.3063430651341266,0.2360863601532616,228.49363869732278,-0.17395096246827507,0.19509328770450976,0.9652355524684149,0
253,-0.2256,0.049,9.7086,-0.0349,-0.0175,0.0,0,0,0,0.2894,1.331,229.7149,80,-0.22117049808429579,0.040422835249042985,9.692521226053842,1.3073413026820195,0.23917049808429616,228.4762078160967,-0.16989537119955125,0.19736527426139142,0.9654959924104773,0
254,-0.2059,0.049,9.6497,-0.0349,-0.0175,0.0,0,0,0,0.2912,1.2227,227.9147,81,-0.22483126436782078,0.0399114176245219,9.691101839080659,1.3291095019157364,0.23617716475096276,228.3042099616906,-0.12279547434515507,0.20543921984056637,0.9709356304264706,0
255,-0.2256,0.0196,9.6694,-0.0349,-0.0349,0.0,0,0,0,0.1162,1.3364,227.7148,82,-0.22539440613027287,0.03971509578544143,9.691049348659204,1.3324238314176522,0.2350183141762501,228.20712076628828,-0.1009265226248819,0.21346470122729153,0.9717235503788062,0
256,-0.2059,0.0,9.6988,-0.0349,-0.0349,0.0,0,0,0,0.0,1.2165,227.9781,80,-0.2254693486590085,0.039225593869732615,9.68966030651361,1.33306160919543,0.2321602298850623,228.08221724138406,-0.07335399999075365,0.22378611271819746,0.9718739457562564,0
257,-0.2059,0.0588,9.6792,-0.0349,-0.0175,0.0,0,0,0,0.3483,1.2189,227.8801,81,-0.22593164750958325,0.04151348659003917,9.68822636015346,1.3359313409961964,0.24568068965517753,228.0975907279741,-0.07587589196681456,0.21999448877976363,0.9725457695783633,0
258,-0.1961,0.0294,9.7086,-0.0349,-0.0175,0.0,0,0,0,0.1736,1.1574,228.2015,82,-0.22369111111111578,0.03951908045977094,9.689608659004032,1.322529655172441,0.2338957088122654,228.21076804598178,-0.10584057434730272,0.2217614219842018,0.969339798286121,0
259,-0.255,0.0883,9.6694,-0.0349,-0.0175,0.0,0,0,0,0.523,1.5105,227.2329,80,-0.2234619157088169,0.037455938697318794,9.692763371647711,1.3206701149425562,0.22161708812261,228.2690549425335,-0.11944894433851945,0.2167975828169269,0.9688811886816417,0
260,-0.2648,0.0196,9.689,-0.0349,-0.0175,0.0,0,0,0,0.116,1.5655,227.9846,81,-0.22294988505747587,0.036609042145594635,9.693132183908247,1.3176103448276135,0.21658689655172866,228.1748832950239,-0.09971330579128655,0.2297875417479067,0.9681192810318506,0
261,-0.2354,0.0294,9.7086,-0.0349,-0.0175,0.0,0,0,0,0.1736,1.3888,227.4302,81,-0.22349616858238014,0.035566590038314916,9.69552122605384,1.3205301149425561,0.21034130268199674,228.25339754789746,-0.11610354460956862,0.21876100413864166,0.9688465255123472,0
262,-0.2354,0.0098,9.689,-0.0349,-0.0349,0.0,0,0,0,0.058,1.3916,228.4336,82,-0.2268344827586254,0.038714176245211535,9.69554490421476,1.340235938697346,0.22893601532567529,228.2330307279741,-0.10299822541483487,0.20399554253286198,0.9735384862387918,0
263,-0.2256,0.0392,9.689,-0.0349,-0.0175,0.0,0,0,0,0.232,1.3337,228.6269,81,-0.22903816091954501,0.03909793103448357,9.694915402299053,1.3532981609195682,0.2312114942528784,228.22116513410438,-0.09496565805103999,0.19376720497829691,0.976440368924714,0
264,-0.2452,0.049,9.738,-0.0349,-0.0175,0.0,0,0,0,0.2885,1.4423,226.3915,81,-0.230370038314181,0.04068291187739548,9.695562681992538,1.3610695019157368,0.2405707279693537,228.18625072797408,-0.08504164335025739,0.19003191014557144,0.9780878242891653,0
265,-0.2059,0.049,9.7086,-0.0349,-0.0349,0.0,0,0,0,0.2894,1.2153,229.9704,82,-0.22972160919540707,0.03883111111111192,9.69964950191591,1.356736551724166,0.22955892720306992,228.31836597701624,-0.11155826800591609,0.18077812217926956,0.9771765569132619,0
266,-0.2354,0.0392,9.689,-0.0349,-0.0175,0.0,0,0,0,0.232,1.3916,228.4309,81,-0.23147915708812739,0.04030475095785524,9.703008045977214,1.3666277394636297,0.23817272030651837,228.36623226054112,-0.11461096415699253,0.16725172869408284,0.9792298944292119,0
267,-0.1863,0.0588,9.6792,-0.0349,-0.0175,0.0,0,0,0,0.3483,1.1029,228.3884,81,-0.23255264367816575,0.040429118773947205,9.707005057471465,1.372405057471293,0.23881118773946858,228.48888145594344,-0.1304648371653641,0.14773064958454724,0.9803849149373641,0
268,-0.2256,0.0392,9.689,-0.0349,-0.0175,0.0,0,0,0,0.232,1.3337,228.6269,81,-0.2325450574712692,0.043368122605364885,9.707090574712845,1.3723329501915993,0.25618214559387503,228.60244996169058,-0.14641839079270083,0.13204144902397572,0.9803707005910186,0
269,-0.2354,0.0294,9.738,-0.0349,-0.0175,0.0,0,0,0,0.1731,1.3846,230.4479,82,-0.23302214559387457,0.04544291187739558,9.707225747126639,1.3751183908046263,0.26841134099617414,228.5581921072844,-0.1384874720183743,0.13647292252158535,0.9809160828085027,0
270,-0.2157,0.0294,9.7282,-0.0349,-0.0349,0.0,0,0,0,0.1733,1.2706,228.8791,81,-0.23179501915709289,0.043574559386974084,9.708434789272232,1.3677223754789554,0.25730950191571417,228.46771157088597,-0.13027235640471904,0.1539622190052227,0.9794512485446888,0
271,-0.2354,0.0785,9.7086,-0.0349,-0.0175,0.0,0,0,0,0.463,1.3888,227.6176,81,-0.22976942528736108,0.04644413793103544,9.707623754789473,1.3558708812260818,0.27429739463602104,228.3919390804645,-0.12504078684839612,0.17277399189060702,0.9769922974878146,0
272,-0.2648,0.0392,9.6694,-0.0349,-0.0175,0.0,0,0,0,0.2325,1.5687,228.9906,81,-0.22538628352490886,0.045651340996169534,9.709178237548096,1.3298289655172688,0.2695744061302738,228.30582145594343,-0.12276698376293342,0.20464198826601154,0.9711075760883988,0
273,-0.255,0.049,9.7086,-0.0349,-0.0175,0.0,0,0,0,0.2894,1.5045,229.2133,81,-0.2229392337164797,0.05037563218390909,9.708772720306715,1.3154495019157362,0.2975107279693548,228.31221678161393,-0.13132021100670244,0.2157595081093974,0.9675757525080638,0
274,-0.2256,0.0686,9.6988,-0.0349,-0.0349,0.0,0,0,0,0.4056,1.3323,226.632,81,-0.2241404597701196,0.0527742528735643,9.707773946360355,1.3227183141762726,0.31172988505747773,228.24337915709287,-0.11293079321658779,0.21803015674251136,0.9693861391077904,0
275,-0.2256,0.0196,9.7184,-0.0349,-0.0175,0.0,0,0,0,0.1156,1.3296,226.6435,81,-0.2235794636015372,0.05469915708812373,9.707270804597904,1.3195088888889164,0.323137547892727,228.19636781609668,-0.10385888130198348,0.22592196960028016,0.968593101579105,0
276,-0.2059,0.0392,9.738,-0.0349,-0.0349,0.0,0,0,0,0.2308,1.2116,229.0357,82,-0.22373816091954488,0.053957547892721426,9.703313256705183,1.3209960153256979,0.31882766283525565,228.0840065900431,-0.07742127401235384,0.2347742843675205,0.9689618061255163,0
277,-0.2256,0.0392,9.7086,-0.0349,-0.0175,0.0,0,0,0,0.2315,1.331,228.7651,81,-0.22242766283525364,0.05403386973180188,9.701638620689858,1.3135065900383416,0.3193232950191637,228.1320094252921,-0.0911959054017028,0.23755719772994802,0.9670831839323121,0
278,-0.2256,0.0785,9.6988,-0.0349,-0.0175,0.0,0,0,0,0.4635,1.3323,227.6711,81,-0.22405984674329968,0.05198727969348767,9.700489655172616,1.3232822988506023,0.3072518773946423,227.90671088123077,-0.03448893920405133,0.24255478153436058,0.9695244664408412,0
279,-0.2157,0.0588,9.6988,-0.0349,-0.0175,0.0,0,0,0,0.3476,1.2744,227.8232,81,-0.22140022988506208,0.0524022222222233,9.699678620689857,1.3077321839080733,0.3096948659003896,227.9900786206944,-0.05791813864158392,0.2535084801180104,0.9655977111222616,0
280,-0.2157,0.0883,9.689,-0.0349,-0.0175,0.0,0,0,0,0.5219,1.2756,227.7716,81,-0.22168329501916167,0.051119233716476156,9.695998927203265,1.309942605364012,0.3021794636015388,228.03801862069437,-0.06942541590745452,0.24838548932016352,0.9661701508126092,0
281,-0.2059,0.049,9.689,-0.0349,-0.0175,0.0,0,0,0,0.29,1.2177,225.8712,81,-0.21944291187739917,0.051172183908047036,9.691192796935066,1.2973605363984944,0.30260804597701774,227.95243049808903,-0.05019411662664025,0.26533523039899093,0.9628487763741437,0
282,-0.2059,0.0294,9.689,-0.0349,-0.0175,0.0,0,0,0,0.174,1.2177,227.9293,81,-0.21704459770115395,0.05125440613026926,9.687422988505947,1.283730651341023,0.3031766283524967,228.00366030651816,-0.0668058319940757,0.2751450292767697,0.9590788255799754,0
283,-0.2059,0.0686,9.689,-0.0349,-0.0175,0.0,0,0,0,0.406,1.2177,229.0607,82,-0.21816720306513865,0.04985647509578647,9.684584367816292,1.2906881992337433,0.29500176245211335,228.22510436782082,-0.12264376428762108,0.24776682051487064,0.9610255510304158,0
284,-0.2059,0.0392,9.6988,-0.0349,-0.0175,0.0,0,0,0,0.2317,1.2165,228.9345,81,-0.2169129501915754,0.04895340996168684,9.686176398467634,1.2831245210728235,0.2896364750957915,228.23190298851048,-0.12759066113759454,0.25341257008644946,0.9589070301716699,0
285,-0.2256,0.0785,9.6792,-0.0349,-0.0349,0.0,0,0,0,0.4644,1.335,229.8253,81,-0.21679908045977464,0.04780383141762551,9.686394176245411,1.28243333333336,0.2827973180076687,228.11384659004304,-0.09708126266737556,0.26729950964949517,0.9587106970197252,0
286,-0.255,0.049,9.6596,-0.0349,-0.0175,0.0,0,0,0,0.2909,1.5121,227.0998,81,-0.21799371647510032,0.046798237547893695,9.681956015325872,1.2901670498084559,0.2769659770115,228.2854135632231,-0.1376031673731101,0.2403589222140681,0.9608813437885967,0
287,-0.2157,0.0196,9.6694,-0.0349,-0.0175,0.0,0,0,0,0.1162,1.2783,228.8593,82,-0.2216354022988552,0.04685072796934964,9.679988505747326,1.311876858237575,0.2773125670498142,228.50605448276335,-0.1727530815188863,0.18897328386030468,0.9666671975466954,0
288,-0.2256,0.0196,9.6694,-0.0349,-0.0175,0.0,0,0,0,0.1162,1.3364,227.7148,81,-0.22321938697318472,0.04996636015325774,9.681332720306713,1.321022911877422,0.29568674329502537,228.61662406130745,-0.18589337806710657,0.16292263633360424,0.9689684548843207,0
289,-0.2157,0.0294,9.7086,-0.0349,-0.0349,0.0,0,0,0,0.1736,1.2731,229.9512,81,-0.22656819923372115,0.047651800766284516,9.68384091954043,1.3404445977011772,0.28193203065134687,228.5447584674377,-0.16045763139526617,0.1624295541776732,0.973586148451519,0
290,-0.2354,0.0294,9.6596,-0.0349,-0.0175,0.0,0,0,0,0.1745,1.3959,227.511,82,-0.22512237547893188,0.0460348659003841,9.68751310344848,1.3314509578544336,0.2722749425287413,228.60871409962164,-0.17704289947082674,0.15765923876226132,0.9714933742336419,0
291,-0.2059,0.0785,9.6988,-0.0349,-0.0349,0.0,0,0,0,0.4635,1.2165,230.0075,81,-0.22633877394636487,0.044199386973180994,9.69110268199254,1.3381227586207174,0.261327739463607,228.62432375479403,-0.17457107817849737,0.15063868929584287,0.9730534024147017,0
292,-0.2452,0.0392,9.6694,-0.0349,-0.0175,0.0,0,0,0,0.2325,1.4525,228.2739,81,-0.2269245977011541,0.044299770114943446,9.692694712643878,1.3413168582375756,0.2618540996168637,228.75789164751436,-0.19047340351428882,0.1243494578683187,0.973784932560336,0
293,-0.2256,0.0588,9.6988,-0.0349,-0.0175,0.0,0,0,0,0.3476,1.3323,227.4896,81,-0.22418030651341464,0.04570160919540325,9.695135325670698,1.324785363984702,0.27007785440613585,228.90870835249513,-0.22161429424354473,0.10098198855457413,0.9698916138283181,0
294,-0.2157,0.0588,9.7086,-0.0349,-0.0175,0.0,0,0,0,0.3473,1.2731,229.9953,82,-0.22419977011494718,0.049625210727970374,9.697117854406333,1.324632873563246,0.29320490421456546,228.9431763984722,-0.225099242362783,0.09334156011604695,0.9698544654961401,0
295,-0.255,0.0392,9.6988,-0.0349,-0.0175,0.0,0,0,0,0.2317,1.506,228.0833,81,-0.2236861302682039,0.047768888888889874,9.697726130268402,1.3215216858237822,0.2822461302682051,228.8250133333381,-0.215156260637596,0.12070297750413743,0.9690916234959843,0
296,-0.2059,0.049,9.7478,-0.0349,-0.0175,0.0,0,0,0,0.2882,1.2104,227.0046,81,-0.22440107279693952,0.045176168582376414,9.700662375479128,1.3253138697318283,0.2668302681992392,228.7532168582423,-0.20287405602389624,0.13380190660809138,0.9700201890581724,0
297,-0.2256,0.0294,9.6792,-0.0349,-0.0175,0.0,0,0,0,0.1742,1.335,229.8302,82,-0.2243779310344874,0.047554329501916695,9.702862681992539,1.324844597701177,0.2808530268199292,228.70825624521547,-0.19702357962133277,0.14305239268954137,0.9699060377268478,0
298,-0.2256,0.0883,9.689,-0.0349,-0.0175,0.0,0,0,0,0.5219,1.3336,231.6823,81,-0.22226038314176705,0.047048352490422427,9.705168122605565,1.312033869731828,0.27781739463602106,228.80091318008138,-0.22008358335832118,0.13053752600434665,0.9667073862554405,0
299,-0.2452,0.0588,9.738,-0.0349,-0.0175,0.0,0,0,0,0.3462,1.4423,228.4698,81,-0.2226395402298897,0.04712973180076725,9.707360919540433,1.3139261302682266,0.27826781609195983,228.8572469731848,-0.2254604619185466,0.11709553402874107,0.967189855210444,0
300,-0.2059,0.049,9.7478,-0.0349,-0.0175,0.0175,0,0,0,0.2882,1.2104,228.0109,81,-0.22327685823755256,0.04755065134099715,9.70726329501936,1.317721839080487,0.28079111111111693,228.7414176245258,-0.2073748223220401,0.14030921588556555,0.9681472031692702,0
301,-0.2157,0.0098,9.689,-0.0349,-0.0175,0.0,0,0,0,0.058,1.2757,226.8814,82,-0.22174674329502375,0.04637908045977108,9.70837471264388,1.3085142528735905,0.2738201532567107,228.82528160920015,-0.2261653603739828,0.1267993401795338,0.9658007854091554,0
302,-0.1765,0.049,9.689,-0.0349,-0.0175,0.0,0,0,0,0.29,1.0438,229.4072,81,-0.22338168582375942,0.047159540229886034,9.706031724138132,1.3184354789272303,0.27847885057471844,228.82097325670972,-0.21726828884184027,0.12304449423207361,0.9683256389783924,0
303,-0.2354,0.049,9.6988,-0.0349,-0.0175,0.0,0,0,0,0.2897,1.3902,229.5126,81,-0.2224820689655219,0.04504084291187833,9.707841532567251,1.3128963984674602,0.26593371647510133,228.93599708812738,-0.23489057565701113,0.09938397321898816,0.9669277342876899,0
304,-0.2059,0.049,9.6792,-0.0349,-0.0175,0.0,0,0,0,0.2903,1.2189,230.8706,81,-0.22231731800766744,0.04324459770115032,9.703914022988707,1.312474329501943,0.25544022988506276,228.78911386973655,-0.21816439074381216,0.13290367802070904,0.9668199992656074,0
305,-0.2157,0.0588,9.7086,-0.0349,-0.0175,0.0,0,0,0,0.3473,1.2731,227.8367,81,-0.2188660536398513,0.043910191570882134,9.702276934866102,1.2923623754789542,0.25942436781609735,228.820343754794,-0.23907553402219175,0.13559332335258809,0.961487046035569,0
306,-0.2746,0.0196,9.6988,-0.0349,-0.0175,0.0175,0,0,0,0.1159,1.6218,226.937,81,-0.2208655172413839,0.042393103448276744,9.700474636015526,1.304406896551751,0.2505186206896604,228.7707737931082,-0.22226882157472477,0.14105709400706867,0.9647276647769899,0
307,-0.2354,0.0,9.6988,-0.0349,-0.0175,0.0,0,0,0,0.0,1.3902,228.3408,81,-0.2215149425287402,0.04286574712643767,9.699813793103651,1.308292796934893,0.25335172413793633,228.60327984674805,-0.1928548848205307,0.17362831512143842,0.9657433414675715,0
308,-0.2354,0.0686,9.7282,-0.0349,-0.0175,0.0,0,0,0,0.4043,1.386,228.4425,82,-0.2225995402298897,0.04241731800766372,9.700046590038514,1.31464007662838,0.25073126436782134,228.61011394636492,-0.18944957999607726,0.16823264879496022,0.967370990116378,0
309,-0.2059,0.0686,9.689,-0.0349,-0.0349,0.0,0,0,0,0.406,1.2177,229.0607,81,-0.22633172413793576,0.04482122605364078,9.69944582375499,1.336715478927231,0.2649788505747182,228.45253463602006,-0.1471188890757904,0.17932197425831028,0.9727279486193492,0
310,-0.2059,0.0196,9.6988,-0.0349,-0.0175,0.0,0,0,0,0.1159,1.2165,229.9266,81,-0.22614743295019626,0.04663141762452204,9.702194329502117,1.335293026819951,0.275617547892726,228.2834679693534,-0.11553315232681634,0.20272175531321496,0.9723970282945941,0
311,-0.2354,0.0392,9.7086,-0.0349,-0.0349,0.0,0,0,0,0.2315,1.3888,227.4294,81,-0.22645003831418095,0.04632344827586303,9.699565977011694,1.337425670498112,0.273869885057477,228.21685747126912,-0.10087867864444659,0.20809567243085175,0.9728924315208245,0
312,-0.2059,0.0785,9.689,-0.0349,-0.0175,0.0,0,0,0,0.464,1.2177,229.0597,81,-0.22652153256705448,0.049363448275863094,9.697283065134302,1.338133486590066,0.2918894252873624,228.3171836015373,-0.12085286884415515,0.19635897292899585,0.9730558760124761,0
313,-0.2354,0.0588,9.6988,-0.0349,-0.0175,0.0,0,0,0,0.3476,1.3902,229.5609,81,-0.22964819923372123,0.05115195402298957,9.698582222222424,1.3563360153256987,0.3024124904214622,228.24123969349134,-0.09747696729804058,0.1891841706127489,0.9770913930825218,0
314,-0.2452,0.0588,9.6694,-0.0349,-0.0175,0.0,0,0,0,0.3487,1.4525,227.3945,81,-0.2299322605364032,0.05287256704980952,9.701270651341199,1.3576841379310627,0.31250145593870376,228.11767808429593,-0.07296285670833268,0.19851905356028585,0.977377412729846,0
315,-0.1961,0.0098,9.7184,-0.0349,-0.0175,0.0,0,0,0,0.0578,1.1562,227.1441,82,-0.22956260536398948,0.051288659003832476,9.702404597701351,1.3553400000000282,0.30309279693487223,227.94895233716946,-0.03900809795678745,0.21020445291377898,0.9768789363421716,0
316,-0.2256,0.0588,9.6792,-0.0349,-0.0175,0.0,0,0,0,0.3483,1.335,226.6741,81,-0.22854367816092427,0.05187471264367923,9.700054099617061,1.34960436781612,0.30660482758621327,227.998110268204,-0.05058098874790465,0.21348236296284376,0.9756366353725576,0
317,-0.2354,0.049,9.7282,-0.0349,-0.0175,0.0,0,0,0,0.2888,1.386,228.6191,81,-0.22903363984674807,0.05040283524904319,9.70053471264388,1.3524396168582655,0.2978842145593932,227.99130145594341,-0.048506669991117204,0.2111250191643477,0.9762547460828176,0
318,-0.2746,0.0588,9.7282,-0.0349,-0.0349,0.0,0,0,0,0.3466,1.6169,227.8921,81,-0.22768613026820395,0.04945632183908148,9.700392030651544,1.3445152490421737,0.2922830651341057,228.0634723371695,-0.06587368657722235,0.21446633320132394,0.9745074906535632,0
319,-0.2256,0.0686,9.6988,-0.0349,-0.0175,0.0,0,0,0,0.4056,1.3323,227.5296,82,-0.22603003831418095,0.05101019157088229,9.699393256705184,1.334906743295047,0.3015083524904277,228.18731854406604,-0.09569175733026322,0.21321943857407064,0.9723068232781277,0
320,-0.2354,0.0588,9.6988,-0.0349,-0.0175,0.0,0,0,0,0.3476,1.3902,228.4326,81,-0.22816459770115416,0.050971724137932085,9.698146666666869,1.3476914942529015,0.30132306513410584,228.27192613027293,-0.10732889691186677,0.19348348832716286,0.9752151801691945,0
321,-0.2157,0.0883,9.689,-0.0349,-0.0349,0.0,0,0,0,0.5219,1.2756,227.7716,81,-0.22792735632184383,0.04807931034482859,9.697087816092155,1.346434865900411,0.2842689655172473,228.24276061303158,-0.10220388349765111,0.1976194315731475,0.9749363704687115,0
322,-0.2059,0.0196,9.689,-0.0349,-0.0175,0.0,0,0,0,0.116,1.2177,228.9768,82,-0.23065471264368295,0.04615823754789368,9.699062835249244,1.362229501915737,0.2728636781609252,228.29783241379783,-0.10509694269955933,0.17840304542748822,0.9783286697308851,0
323,-0.2256,0.0294,9.6792,-0.0349,-0.0349,0.0,0,0,0,0.1742,1.335,227.7163,81,-0.22979555555556033,0.0484712643678171,9.699310651341197,1.3571266666666948,0.28656260536399064,228.3577173180124,-0.11837111705073662,0.17593303642471186,0.9772593541852346,0
324,-0.2354,0.0392,9.7086,-0.0349,-0.0175,0.0,0,0,0,0.2315,1.3888,228.5624,81,-0.22907823754789747,0.045459540229886,9.699648582375678,1.3528689655172692,0.268744904214565,228.6708374712691,-0.17007962145062072,0.1334846856825328,0.9763476640292887,0
325,-0.2452,0.0392,9.7086,-0.0349,-0.0175,0.0,0,0,0,0.2315,1.4467,228.289,81,-0.23024107279693964,0.04325088122605454,9.698957701149627,1.3597959386973462,0.2557092720306567,228.63305854406605,-0.15975389996727435,0.13543652948276488,0.9778218845612479,0
326,-0.2157,0.0392,9.6988,-0.0349,-0.0175,0.0,0,0,0,0.2317,1.2744,228.9602,82,-0.23023241379310821,0.043549118773947265,9.696539616858441,1.3600550191571164,0.25751961685824293,228.76061655172887,-0.175472668880689,0.11387558967271365,0.9778761130902932,0
327,-0.2256,0.0294,9.6988,-0.0349,-0.0175,0.0,0,0,0,0.1738,1.3323,229.666,81,-0.23063302681992814,0.04372980842911968,9.697448275862271,1.3623042145594153,0.25855708812261075,228.71813295019632,-0.16868506348746598,0.11995040327612869,0.978344136850691,0
328,-0.2452,0.0392,9.6694,-0.0349,-0.0175,0.0,0,0,0,0.2325,1.4525,229.402,81,-0.23098789272031128,0.0436248275862078,9.693783601532768,1.3649203831417909,0.25804796934866436,228.6523954789319,-0.15845664344424107,0.12915472720032747,0.9788822955750062,0
329,-0.2059,0.0294,9.7282,-0.0349,-0.0175,0.0,0,0,0,0.1733,1.2128,228.0058,82,-0.228722222222227,0.04018528735632268,9.693791111111311,1.351595785440641,0.23774222222222718,228.55475509579017,-0.15435681155158068,0.15316070165799792,0.9760716030062854,0
330,-0.2256,0.0686,9.689,-0.0349,-0.0175,0.0,0,0,0,0.406,1.3336,229.6113,81,-0.2260354789272077,0.03995954022988589,9.691951264368019,1.3360457471264644,0.23646896551724633,228.39592781609673,-0.13712183657434018,0.1878844172861283,0.9725723868563881,0
331,-0.2256,0.0686,9.6694,-0.0349,-0.0175,0.0,0,0,0,0.4068,1.3363,230.8646,81,-0.2250820689655219,0.04120536398467518,9.693723524904417,1.3301844444444721,0.24377249042146104,228.29027754789743,-0.11939837113094562,0.20622670566462495,0.9711923469848767,0
332,-0.2354,0.0392,9.7086,-0.0349,-0.0175,0.0,0,0,0,0.2315,1.3888,227.5188,81,-0.22674160919540698,0.040671111111111956,9.697132873563419,1.3394938697318286,0.24051103448276362,228.2867176245258,-0.1141561679669938,0.19880106464386077,0.9733686382925839,0
333,-0.2354,0.0196,9.7086,-0.0349,-0.0175,0.0,0,0,0,0.1158,1.3888,226.3847,82,-0.22558022988506213,0.040286743295019994,9.697170421456141,1.3326624521073074,0.2382653639846793,228.35434743295494,-0.1310201609715304,0.19615710313494053,0.9717798661778821,0
334,-0.255,0.0294,9.7086,-0.0349,-0.0349,0.0,0,0,0,0.1736,1.5045,229.315,81,-0.22652045977011967,0.041156168582376335,9.700910191571083,1.337734252873591,0.24329195402299356,228.31573402299324,-0.12077123471955467,0.19686506839126874,0.9729637473778843,0
335,-0.2059,0.0785,9.689,-0.0349,-0.0175,0.0,0,0,0,0.464,1.2177,227.9684,81,-0.22408505747126903,0.04304865900383231,9.699580996168782,1.323580229885085,0.2545560919540283,228.26921892720782,-0.11812294996306617,0.21430777343288188,0.9695974148780842,0
336,-0.2354,0.0098,9.6792,-0.0349,-0.0175,0.0,0,0,0,0.0581,1.393,228.5538,81,-0.22066567049808886,0.04336590038314266,9.6996861302684,1.3034094252873836,0.2563874329501969,228.29628888889363,-0.13375525423238152,0.22785426500134878,0.9644646006390935,0
337,-0.2256,0.049,9.6792,-0.0349,-0.0175,0.0,0,0,0,0.2903,1.335,224.6537,81,-0.2208767816092,0.04255180076628441,9.699220536398668,1.3046826053640117,0.251585747126442,228.26571800766757,-0.12613905894431274,0.23075852228262517,0.9648002084382975,0
338,-0.2157,0.049,9.7086,-0.0349,-0.0175,0.0,0,0,0,0.2894,1.2731,227.8274,81,-0.22078727969349118,0.044507432950192494,9.700985287356524,1.3038834482758892,0.2630451340996223,228.31264973180555,-0.1372271969457199,0.22524506602423777,0.9645897348874066,0
339,-0.1961,0.049,9.7282,-0.0349,-0.0175,0.0,0,0,0,0.2888,1.1551,226.049,81,-0.21859042145594323,0.04571164750957949,9.703876475095987,1.290503141762479,0.2700347892720363,228.2190545593917,-0.12122051555032287,0.24866411032683544,0.9609743736672052,0
340,-0.2059,0.0392,9.6792,-0.0349,-0.0175,0.0,0,0,0,0.2322,1.219,229.9616,82,-0.21847363984674786,0.045446436781610144,9.705513563218593,1.2896035249042415,0.2684013793103504,228.2787114942576,-0.13625503553493248,0.24174741888760398,0.9607251171654437,0
341,-0.2157,0.049,9.7282,-0.0349,-0.0175,0.0,0,0,0,0.2888,1.2705,228.7864,81,-0.21809103448276315,0.047222375478928186,9.708352183908247,1.2869471264368082,0.27878367816092536,228.27857900383617,-0.13747530938683977,0.24398803017809165,0.9599845730212582,0
342,-0.2059,0.0588,9.7184,-0.0349,-0.0175,0.0,0,0,0,0.3469,1.214,229.0274,81,-0.2194131800766329,0.04796888888888989,9.707616245210929,1.2948741762452376,0.28315678160920127,228.2848056705028,-0.13521072892107244,0.23651325280210445,0.9621743813018512,0
343,-0.2354,0.049,9.7184,-0.0349,-0.0349,0.0175,0,0,0,0.2891,1.3874,229.5199,81,-0.21696950191571332,0.049225440613027846,9.708952950191774,1.2803314176245477,0.2905095785440674,228.26029501916182,-0.13600452596434018,0.2520444525677317,0.9581108301480824,0
344,-0.2157,0.0098,9.7086,-0.0349,-0.0349,0.0175,0,0,0,0.0579,1.2731,230.942,81,-0.21715800766283974,0.05211095785440721,9.709733946360355,1.2813367049808693,0.3075382375478991,228.35774498084766,-0.15934434322170832,0.2368167212354655,0.9583982579421387,0
345,-0.2157,0.049,9.689,-0.0349,-0.0175,0.0,0,0,0,0.29,1.2757,228.8636,81,-0.21758704980843363,0.05399708812260648,9.707608735632386,1.284148659003858,0.3187465900383208,228.55312367816566,-0.20037709883585383,0.1994741813265221,0.9591970961414762,0
346,-0.2256,0.0686,9.7282,-0.0349,-0.0175,0.0,0,0,0,0.4043,1.3283,226.691,81,-0.21740068965517692,0.05427555555555668,9.706902835249242,1.283124444444471,0.32039540229885716,228.544685057476,-0.19937696482780676,0.20185681826151536,0.9589070084306346,0
347,-0.1961,0.049,9.6596,-0.0349,-0.0175,0.0,0,0,0,0.2909,1.1633,229.0997,82,-0.21838636015326124,0.05163969348659111,9.706467279693689,1.2889804597701418,0.3048361685823818,228.58844559387447,-0.20389604534166028,0.1891195449467986,0.9605520289985063,0
348,-0.2354,0.0785,9.738,-0.0349,-0.0175,0.0,0,0,0,0.4616,1.3846,228.5697,81,-0.2183468199233762,0.05133118773946467,9.705851494253075,1.2888391570881494,0.3030200000000063,228.6323150191618,-0.2120972427290897,0.1800835040145621,0.9605127230852045,0
349,-0.2452,0.049,9.7184,-0.0349,-0.0175,0.0,0,0,0,0.2891,1.4452,228.4108,81,-0.21639593869732252,0.052207739463602604,9.704387126436982,1.2775385440613292,0.3082371647509642,228.61722528736107,-0.2175095112480208,0.19040088055638693,0.9573072219512394,0
350,-0.1961,0.0785,9.7184,-0.0349,-0.0349,0.0,0,0,0,0.4626,1.1562,228.0205,81,-0.21534590038314622,0.05122436781609301,9.702727509578747,1.2715568582375743,0.3024406896551787,228.6683870498132,-0.23145376028458337,0.18257162590797504,0.9555609652258955,0
351,-0.2059,0.0392,9.7086,-0.0349,-0.0175,0.0,0,0,0,0.2315,1.2153,226.9924,82,-0.21733984674329954,0.05107409961685929,9.699273103448478,1.2837711877394902,0.3016430651341059,228.3315177777825,-0.15182745842477144,0.23894395791956702,0.9590903022354081,0
352,-0.2648,0.049,9.689,-0.0349,-0.0175,0.0,0,0,0,0.29,1.5655,229.0536,81,-0.21845111111111565,0.04973685823754892,9.70010666666687,1.2902059003831685,0.29373333333333945,228.17154643678637,-0.10938744742276035,0.25440273678454983,0.9608921031327419,0
353,-0.2059,0.0785,9.6988,-0.0349,-0.0175,0.0,0,0,0,0.4635,1.2165,226.8738,81,-0.21890191570881679,0.04896988505747228,9.701946513410164,1.2926340996168848,0.2891719540229945,228.00264222222694,-0.06451673874250273,0.26690204023040726,0.9615616939868589,0
354,-0.2157,0.0294,9.6694,-0.0349,-0.0175,0.0,0,0,0,0.1743,1.2783,228.7685,82,-0.22045394636015783,0.048833256704981856,9.698882605364185,1.3021659770115213,0.2884427586206956,227.9894200766331,-0.05894392450336126,0.25878310706275237,0.9641353210328362,0
355,-0.2059,0.049,9.689,-0.0349,-0.0175,0.0,0,0,0,0.29,1.2177,229.0184,81,-0.221996628352495,0.04716421455938795,9.701225593869934,1.310961379310372,0.27855693486590616,227.94911080460247,-0.046917105104160806,0.25260088625356697,0.9664323967627315,0
356,-0.2354,0.0196,9.7086,-0.0349,-0.0175,0.0,0,0,0,0.1158,1.3888,228.4399,81,-0.2206341762452153,0.0456899616858247,9.700174252873765,1.3031114176245482,0.26991042145594435,228.076073103453,-0.08084041947163599,0.2518428391626871,0.964385820583301,0
357,-0.2059,0.0196,9.6792,-0.0349,-0.0175,0.0,0,0,0,0.1161,1.219,227.9896,81,-0.22089302681992798,0.04397494252873655,9.702772567050012,1.3042393103448549,0.2597386973180131,228.18123517241852,-0.10638995621589627,0.2409706540573692,0.964683534170426,0
358,-0.1961,0.0392,9.6988,-0.0349,-0.0175,0.0,0,0,0,0.2317,1.1586,228.1252,82,-0.22253371647510037,0.03985639846743378,9.703155555555757,1.3138700383142035,0.2354454406130317,228.35970674329974,-0.14227017379751483,0.21054821323495276,0.9671756032650916,0
359,-0.2157,0.0392,9.7086,-0.0349,-0.0349,0.0,0,0,0,0.2315,1.2731,228.8714,81,-0.22338681992337628,0.037239310344828365,9.701525977011697,1.3191608429119048,0.22008919540230346,228.36871042146066,-0.14125505151833534,0.20504186933649357,0.9685065008762453,0
360,-0.1961,0.0686,9.7086,-0.0349,-0.0175,0.0,0,0,0,0.4051,1.1574,226.0413,81,-0.22250429118774412,-0.6084922605364105,9.694079386973382,1.3461695019157367,-2.291880000000046,228.8905773180124,-0.2009839665593586,0.09601927465361194,0.9748772969359072,0
361,-0.2452,0.0294,9.7184,-0.0349,-0.0175,0.0,0,0,0,0.1735,1.4452,228.4651,82,-0.22155701149425747,-0.3404632950191637,9.697393026820125,1.3270760919540505,-1.2512180076628592,228.77592965517715,-0.2044121782275966,0.12825126593174405,0.9704469455767041,0
362,-0.2452,0.0588,9.7184,-0.0349,-0.0175,0.0,0,0,0,0.3469,1.4452,228.4098,81,-0.22447609195402768,-0.09199762452107434,9.702779157088324,1.331585363984702,-0.28286222222222673,228.6575937931082,-0.18443306882532978,0.1487386068483399,0.9715252286773032,0
363,-0.2746,0.0196,9.7086,-0.0349,-0.0175,0.0,0,0,0,0.1158,1.6202,227.787,81,-0.22906873563218866,0.13229026819923678,9.707331570881427,1.3470955555555835,0.5861634482758755,228.625774406135,-0.16816399119663725,0.14468490502566933,0.975083150465913,0
364,-0.2256,0.0294,9.738,-0.0349,-0.0175,0.0,0,0,0,0.1731,1.3269,230.5496,81,-0.24974183908046493,0.44992000000000953,9.706104367816295,1.4562230651341297,2.0290924904214984,228.34925708812736,-0.06301355416003643,0.0953886002705252,0.9934436606725869,0
365,-0.2354,0.049,9.689,-0.0349,-0.0349,0.0,0,0,0,0.29,1.3916,230.5736,82,-0.24795363984674842,0.6473894252873698,9.814975325670703,1.4305860536398762,2.9335255172414403,229.61427931034962,-0.13438514842889082,-0.03835447029553411,0.9901866321507748,0
366,-0.2256,0.0392,9.689,-0.0349,-0.0175,-0.7854,0,0,0,0.232,1.3337,228.8063,82,-0.13039954022988784,0.6761444444444584,9.68075655172434,0.8733636015325855,2.8177626053640425,232.19373218391289,0.6165025354148921,-0.18003406213831394,0.7664935487641025,0
367,-0.2059,0.0098,9.7282,-0.0349,-0.0175,0.0,0,0,0,0.0578,1.2128,230.0231,81,-0.08339003831417807,0.7875657471264531,9.735251187739664,0.4764452873563324,3.133868352490486,234.38372942529222,-0.2922188087437809,0.8392096758199484,0.4586232526012421,0
368,-0.2059,0.0392,9.6792,-0.0349,-0.0175,0.0,0,0,0,0.2322,1.219,230.144,82,0.002364214559386825,0.8690474329502095,9.782026206896754,-0.16079310344827782,3.3136246743295703,235.60649685824242,-0.9870178209911192,0.012784728643038935,-0.16010112978822644,0
369,-0.2452,0.049,9.738,-0.0349,-0.0349,0.0,0,0,0,0.2885,1.4423,227.5714,81,0.07361187739463723,0.8920065900383324,9.763639846743498,-0.5364905747126523,3.1910256704981492,235.60351724138417,-0.8593986392361074,0.013692906743036066,-0.5111227672331311,0
370,-0.255,0.049,9.6792,-0.0349,-0.0349,-0.576,0,0,0,0.2903,1.5091,228.4751,82,0.06036582375479009,0.8545183141762626,9.847830498084495,-0.6994524904214678,2.5442540996169107,234.3898629885106,-0.25605549429537605,0.7210815816530651,-0.6437988322774939,0
371,-0.2157,0.049,9.7086,-0.0349,-0.0175,0.0,0,0,0,0.2894,1.2731,229.3212,81,0.014511800766283209,0.8898547126436965,9.790575249042348,-0.32416091954023274,2.674544367816147,231.7237216092002,0.6909037383864409,-0.6490001255161159,-0.3185135183374581,0
372,-0.2256,0.0588,9.7282,-0.0349,-0.0175,0.0,0,0,0,0.3466,1.3283,231.4467,82,-0.0843032950191594,0.9168475862069152,9.712691494253075,0.40579417624522285,2.819624444444502,227.9467321072844,-0.16563354344423092,0.9037361890826888,0.3947485653278635,0
373,-0.2746,14.0823,9.9145,-0.0349,-0.0175,0.0,0,0,0,54.857,0.9135,218.53,83,-0.28104789272031305,0.9419171647509772,9.696761915709015,1.483090191570916,2.911511340996229,223.21005279693946,-0.08651675122874095,-0.013693573894882582,0.9961562818106452,0
374,-0.255,0.0392,9.6792,-0.0349,-0.0175,0.0,0,0,0,0.2322,1.5091,230.737,81,-0.4828653639846851,0.9030862068965704,9.628430344827786,2.8062160153257323,2.7211009195402864,217.45808505747576,0.729362708991879,0.5997556781059329,0.32912484760607247,0
375,-0.2256,0.0392,9.7086,-0.0349,-0.0175,0.0,0,0,0,0.2315,1.331,231.4414,82,-0.7210390804597857,0.9453436015325867,9.535290957854604,4.331131570881321,3.1239055172414463,211.00603854406563,0.32302866542249575,0.18466693647247734,-0.9281975026303568,0
376,-0.2059,0.0686,9.7086,-0.0349,-0.0175,0.0,0,0,0,0.4051,1.2152,230.7047,81,-1.0272230651341212,0.9878665134099821,9.495101302682187,6.045622835249172,3.4595686590039048,203.96921563218814,-0.9453574203203174,0.22564825363969657,-0.23533425903312458,0
377,0.2157,-2.3732,9.8361,-0.0175,0.1571,-0.2793,0,0,0,-13.5658,-1.2216,236.3569,84,-1.3677193103448566,1.021457241379332,9.415131187739657,8.073324980843081,3.862183678161001,196.36424375479334,0.0031990715505695487,-0.2175652317144028,0.9760405400854375,0
378,-0.0883,-1.2749,7.4825,-0.0349,1.1345,0.8378,0,0,0,-9.6699,0.6663,204.3236,81,-1.7156847509578903,1.095291877394659,9.29325072796954,10.235951340996383,4.679259157088223,188.39892681992728,-0.6854353594793994,0.06644219800212896,-0.725095719405371,0
379,-2.638,1.471,11.8072,0.4363,1.5359,-0.2269,0,0,0,7.1021,12.5016,167.5874,82,-2.0788190804598137,1.1463608429119012,9.161637931034672,12.519976168582636,5.406311034482872,180.35025923372024,-0.2869062228003455,-0.9568353665159075,-0.046377803988626086,0
380,-2.0594,-0.0294,8.6495,-0.0175,1.1694,-0.2094,0,0,0,-0.1949,13.3934,148.2064,84,-2.455301379310396,1.218668505747152,9.038053716475282,14.81497241379341,6.32136114942542,172.08536475096142,0.4787185942799419,-0.40504843968483767,0.778950748763691,0
381,-3.6088,0.1471,8.3258,0.3491,0.576,0.6632,0,0,0,1.0123,23.4328,140.2199,80,-2.810471570881284,1.2340786206896812,8.906034559387159,17.102394789272385,6.91932352490436,164.0834754789306,-0.1318296760706718,-0.1157770187422573,-0.9844879981179337,0
382,-4.5601,1.0983,9.2084,0.7505,0.6283,0.5934,0,0,0,6.8024,26.1863,135.6815,80,-3.173202452107345,1.2537693486590302,8.756391187739645,19.4595875862073,7.644697011494413,156.2257547892753,0.5385499481392086,-0.6178649447111391,0.5728934136960877,0
383,-4.3247,2.4222,6.8647,0.0349,-0.0349,-0.0175,0,0,0,19.4372,30.7168,130.7955,83,-3.6009676628353233,1.270583984674356,8.65981295019175,21.890739386973635,8.294739693486763,148.3572638314207,0.7594434713036197,0.6428043602759017,0.10024055219619042,0
384,-4.9033,1.3925,8.8064,0.1222,-0.0175,0.2269,0,0,0,8.9864,28.8111,132.1506,81,-4.0163481992338,1.2620261302682259,8.453390268199408,24.651401609195908,9.099206513410152,140.63392582375772,-0.6559073793850465,0.596193818965552,-0.46296699655106227,0
385,-5.1583,1.6475,9.081,-0.0175,0.0698,0.2967,0,0,0,10.2838,29.2034,130.5264,82,-4.416979770115034,1.221697241379336,8.221095938697488,27.41165295019214,9.814305440613232,133.63264122605642,0.07460155908532172,-0.6461108202357698,0.759588977906012,0
386,-4.4228,1.8044,7.6982,-0.0698,0.0524,0.1047,0,0,0,13.1927,29.2231,129.0833,82,-4.84829938697328,1.1884367816092203,8.083368122605531,29.99120996168644,10.481158237548108,127.78210674329767,-0.07578524014951522,0.12427604039441946,-0.9893493130130353,0
387,-5.1877,3.3637,8.2376,0.1571,0.1047,0.0873,0,0,0,22.2135,30.2456,126.6765,81,-5.233155325670606,2.0889056704981273,7.969035325670664,32.24585302682059,14.848618773946663,122.32262965517496,-0.6615454616061178,0.13374644311436815,0.737881759621827,0
388,-5.5408,2.2751,8.4828,0.2269,0.3665,-0.1222,0,0,0,15.0149,32.2495,125.9876,82,-5.5735623754790415,2.256786130268246,7.851101072797097,34.335017931035196,16.106453333333665,118.84850000000247,-0.8405394899256133,0.4947708124590799,0.22066990962560273,0
389,-5.1387,2.4615,7.1785,0.1222,0.0698,-0.2618,0,0,0,18.928,34.1062,123.3928,83,-5.820456858237669,2.4103671264368307,7.73898919540246,35.92835432950265,17.283952337165108,116.98228666666911,0.14623231940475256,0.13442655454865318,-0.9800742880994707,0
390,-5.1681,2.7655,7.3746,0.0524,0.0349,-0.1396,0,0,0,20.5576,33.2744,121.9215,82,-5.9822439080461,2.562362911877447,7.672158467433109,36.947113333334094,18.4021191570885,116.82462758620933,-0.6085986937210602,-0.40371084970098303,-0.6830996851373373,0
391,-5.531,2.0986,7.8355,0.0,0.0349,-0.0175,0,0,0,14.995,34.2906,123.4258,82,-5.986212107279817,2.5489659770115467,7.6449181609196994,37.05293409961762,18.551371187739846,118.91831793103695,0.7146178464332312,-0.35601934011002834,-0.602139155865777,0
392,-5.7761,2.4517,7.7669,-0.1047,0.0873,-0.1222,0,0,0,17.5199,35.3466,120.4254,84,-5.920437624521195,2.4826569348659513,7.528267662835405,36.63756927203141,18.107136551724512,121.04126068965769,-0.04379069338354524,0.48555515703437574,-0.8731085640688168,0
393,-5.9624,1.8927,7.3942,-0.0524,0.1571,-0.2269,0,0,0,14.3587,37.9991,120.0499,83,-5.939044827586329,2.524748122605416,7.6726441379311945,36.518285517242134,18.254213486590416,122.28073226053894,-0.36913932666229093,0.09087514202021711,-0.9249204647287873,0
394,-6.7764,2.687,7.3452,0.1222,0.1222,-0.2443,0,0,0,20.0951,40.909,116.239,82,-5.866055249042267,2.436456704980893,7.653978620689813,36.172331034483506,17.667924367816457,123.11885869732056,-0.036396518794024606,-0.02472667499901943,-0.999031473459755,0
395,-7.1294,2.4909,7.4432,0.0,0.0349,-0.4887,0,0,0,18.5042,42.2528,116.0492,82,-5.839685057471385,2.299205057471312,7.655317164751117,36.075589272031394,16.69903961685858,123.90791885057729,0.009693848633768735,0.05180261429307301,-0.9986102935835725,0
396,-6.2174,2.2653,6.2566,-0.1571,-0.3491,-0.6632,0,0,0,19.9052,43.06,119.0959,84,-5.835372720306635,2.1908215325670954,7.726075862069125,35.92933180076703,15.86063517241412,124.70221187739723,-0.11312743568831968,0.16210144369911475,-0.9802679762418274,0
397,-6.3547,2.3438,8.0513,0.1047,-0.1396,-0.4887,0,0,0,16.2319,37.1585,127.6211,83,-5.804022681992457,2.1771786206897,7.6762606130269795,35.92636298850649,15.87069386973213,125.38436521073058,-0.1928074499085996,0.05530506189924958,-0.9796768025160456,0
398,-6.3351,2.5203,8.9829,0.0524,-0.1396,-0.4014,0,0,0,15.6736,34.1798,131.12,83,-5.790938007662955,2.092255555555599,7.719878314176406,35.80595854406205,15.22138291187771,126.3052992337191,-0.25380462311479995,-0.18959788523276114,-0.9484913574729182,0
399,-5.1681,1.8633,7.7374,0.0524,-0.2269,-0.1571,0,0,0,13.5407,33.001,132.3785,84,-5.776865823754909,1.9703525670498494,7.817269118774109,35.547033793104184,14.248828888889186,127.33904842912142,0.057301210329539706,-0.5460975637553935,-0.8357595480490748,0
400,-5.0504,1.0199,7.7963,-0.2793,-0.192,-0.2618,0,0,0,7.4535,32.7161,133.1742,83,-5.708865670498203,1.843223065134138,7.854221839080623,35.186828505747854,13.320418544061578,128.45194781609462,0.7584878655427746,-0.2797535687602479,-0.5885865260012934,0
401,-4.5993,2.0888,8.012,0.0524,-0.0524,0.0524,0,0,0,14.6134,29.0536,133.1142,82,-5.678198160919658,1.8042879693486966,7.939917011494417,34.79355846743367,12.871541532567317,129.47937340996435,0.7596212866666987,0.6068673723060405,-0.23385357229084736,0
402,-4.8445,1.9907,8.4533,0.1047,-0.0349,0.0175,0,0,0,13.2526,29.1561,133.3048,83,-5.648142911877512,1.7163629118774302,8.05957455938714,34.34520674329573,12.062963295019406,130.5304477394663,-0.15028839381345932,0.9659244615630252,0.21072098433509312,0
403,-4.8641,1.5495,8.2474,-0.0873,-0.0873,-0.0175,0,0,0,10.641,30.1002,132.8909,84,-5.576272183908162,1.6172669731801104,8.08549356321856,33.99253655172485,11.337290881226288,131.44405187739736,-0.740051593763563,0.40702487027619993,0.535401151982934,0
404,-5.7271,0.8532,8.3062,-0.1047,-0.0175,0.0349,0,0,0,5.865,34.4481,132.6778,82,-5.498805747126551,1.5600972413793428,8.101296781609364,33.61007777777848,10.910565057471493,132.17604689655445,-0.5685020052575757,-0.13260461799423176,0.8119245564119362,0
405,-5.7271,1.3239,7.708,-0.1047,0.0,0.0,0,0,0,9.7465,36.2172,132.0549,82,-5.430050114942642,1.4979881992337478,8.132203218390973,33.248963218391495,10.412605134099834,132.91648827586482,-0.14663726161019014,-0.21378836249285926,0.9658116014886581,0
406,-5.58,1.2945,7.8355,-0.0873,-0.1047,-0.1047,0,0,0,9.3816,35.0951,132.1782,83,-5.375404061302794,1.4251419157088419,8.152270268199404,32.981705593870416,9.846512490421661,133.4051238314204,0.0005635693155720858,0.004985495445509799,0.9999874135331851,0
407,-5.7075,1.5298,8.4729,-0.0524,-0.0349,-0.0175,0,0,0,10.2356,33.5426,131.6848,84,-5.338489272030762,1.3190501915709087,8.150647816092125,32.90177524904283,9.093528505747317,133.7075588505775,-0.01601308247647154,0.0833206912708676,0.9963941206148029,0
408,-5.5898,1.8044,8.1101,-0.0524,0.0,0.0,0,0,0,12.5444,33.9347,131.6586,82,-5.36996796934877,1.2919009195402567,8.153250957854576,33.050966590039,8.90411371647528,133.58745816092232,0.004475593656129204,-0.06404334943150516,0.9979370814109572,0
409,-5.7173,1.6573,8.1199,0.0,0.0524,0.0175,0,0,0,11.5368,34.6037,132.1308,81,-5.4509459770116075,1.2594227586207158,8.15222283524921,33.428413486590735,8.682013103448456,133.15619823755065,-0.1511818682013331,-0.39984161717134276,0.9040302671398563,0
410,-5.6388,0.9611,8.0218,-0.1396,-0.0698,-0.2793,0,0,0,6.8322,34.9154,132.9404,83,-5.493555019157203,1.2346085823755046,8.041946666666835,34.03934620689726,8.745008429118956,132.6186815325698,-0.679959120103081,-0.5406844346551634,0.49529378868533197,0
411,-5.5702,0.7943,8.3455,-0.0175,0.0175,0.0698,0,0,0,5.4376,33.6044,133.2612,81,-5.558779770115058,1.2079838314176496,8.01349118773963,34.45207509578616,8.600108505747306,132.4216013793131,-0.8844854059448982,-0.45454180823077833,0.1052488063627458,0
412,-5.6584,1.2258,8.1493,0.0349,0.0,0.0698,0,0,0,8.555,34.4768,132.7189,81,-5.651103218390922,1.2099462835249295,8.057878390804765,34.75159218390877,8.525773716475271,132.38637563218666,-0.8879821080042666,-0.4174852662818224,-0.19285701517418258,0
413,-5.5996,1.1474,8.1003,-0.0698,0.0175,0.0175,0,0,0,8.0627,34.3923,132.1234,81,-5.679833026820042,1.2036045210728217,8.021896858237715,35.016197624521794,8.52424659003849,132.39681287356598,-0.8074061113141966,-0.38994336723809914,-0.44276352803669383,0
414,-5.3348,1.1278,7.8061,-0.0873,-0.0349,-0.0349,0,0,0,8.2214,34.0767,132.6924,83,-5.689781379310463,1.114453869731824,7.992316551724304,35.20520896551797,7.939716551724303,132.52609869732075,-0.6674083113440652,-0.4365090604811931,-0.6033456605186528,0
415,-5.4917,1.0199,7.5315,-0.0873,0.0175,0.1047,0,0,0,7.7125,35.8534,132.3514,80,-5.678447279693604,1.1041364750958083,7.995159386973347,35.12927034482831,7.8761217624522715,132.6062577011522,-0.6646743142660673,-0.5151823679209292,-0.5411055199665937,0
416,-5.7075,1.4416,7.8061,-0.0349,-0.0349,-0.0349,0,0,0,10.4639,35.7187,132.0756,83,-5.656480076628469,1.0904347892720532,8.005930498084457,34.99146475095858,7.7545096551725745,132.7387167049836,-0.6374311669973212,-0.6456779393003267,-0.42045392855973757,0
417,-5.6584,1.1866,7.9532,-0.1047,-0.0349,-0.0698,0,0,0,8.4865,35.1358,132.8077,83,-5.620992796934982,1.058962528735654,8.018529885057639,34.787712183908766,7.519756475095941,132.9133901149453,-0.5531969126431834,-0.8011951770473502,-0.2281654314704909,0
418,-5.7565,0.6178,8.0709,-0.0524,0.0,0.0,0,0,0,4.3777,35.4217,133.0252,81,-5.62949547892732,0.9913917241379515,8.043611877394802,34.77459011494325,7.0304338697319455,133.04124183908323,-0.4478610640284292,-0.8677765484106695,-0.21537021464396658,0
419,-5.7663,1.1474,8.2376,-0.0349,0.0175,-0.1396,0,0,0,7.9301,34.7364,132.8262,83,-5.635926973180194,0.948128352490441,8.02642781609212,34.88137187739536,6.751717624521213,133.14715670498362,-0.3432867242090231,-0.883679474370606,-0.3182213248007234,0
420,-5.7271,1.2847,8.2278,-0.0698,-0.0349,-0.0175,0,0,0,8.8751,34.5202,133.1533,83,-5.635001532567167,0.8922901149425473,8.012870957854572,34.944556091954745,6.37981961685837,133.2698901149453,-0.22712728090566486,-0.8977458431115539,-0.3774461543642013,0
421,-5.5702,0.7747,7.9238,-0.0698,-0.0349,0.0349,0,0,0,5.5846,34.9805,133.1808,82,-5.63901609195414,0.8755029118774128,8.028536245210894,34.92432475095858,6.241717011494383,133.32052053640126,-0.18286105124977622,-0.9153920123648014,-0.3586353295961595,0
422,-5.4917,0.8532,7.8257,-0.0873,-0.0524,-0.0175,0,0,0,6.2224,34.903,133.7692,84,-5.636232490421573,0.8726399233716657,8.025194942528902,34.918790651341716,6.216456168582505,133.37585034483033,-0.13223713519681288,-0.9260543222249338,-0.3534639053191404,0
423,-5.6682,0.608,8.1493,0.0349,0.0349,0.0349,0,0,0,4.2672,34.7485,134.1826,80,-5.647775019157206,0.8864058237548078,8.041051647509745,34.91348919540303,6.2992095785441915,133.4155160919568,-0.0955998969863844,-0.9324208287695029,-0.34849972420790526,0
424,-5.7271,0.8532,8.1886,0.0349,0.0175,0.0524,0,0,0,5.9487,34.8264,133.8784,80,-5.653560306513528,0.8478419923371824,8.0463441379312,34.93733823754862,6.021757164751083,133.50021103448552,-0.016230379741381445,-0.9285899084519607,-0.3707524196746796,0
425,-5.5702,0.7747,7.9924,0.0,-0.0175,-0.0524,0,0,0,5.5369,34.7509,133.6611,82,-5.659139616858354,0.7845858237548056,8.072873793103616,34.900437547893446,5.553655325670614,133.62400927203342,0.09994263758526356,-0.9364593814764159,-0.3362369641150557,0
426,-5.6682,0.3923,8.3357,0.0175,0.0,-0.0175,0,0,0,2.6945,34.1888,134.1144,81,-5.661235172413911,0.7608957854406289,8.082942298850742,34.88626283524977,5.3730669731801886,133.73685425287636,0.2057731993612547,-0.9238087195813276,-0.32285420866103226,0
427,-5.8153,0.9414,8.2572,-0.0175,0.0349,0.0,0,0,0,6.5049,34.9847,133.0173,81,-5.657693793103565,0.7350747126436934,8.091617777777945,34.85079992337237,5.1784443678161995,133.78350084291463,0.2514769909789679,-0.9236794558572506,-0.2890944237362895,0
428,-5.5211,0.6178,7.8159,-0.0873,-0.0349,0.0175,0,0,0,4.52,35.1559,134.2025,82,-5.644105134099734,0.7242993103448427,8.099380459770282,34.76360919540303,5.103911187739571,133.80421210728247,0.2766393062971314,-0.9389331870776791,-0.2046342210276517,0
429,-5.6388,0.7747,8.1395,-0.0524,0.0,0.0,0,0,0,5.4375,34.5948,134.0151,82,-5.627559616858354,0.6898219157088266,8.062494329502083,34.82184260536471,4.887098927203167,133.8328963984702,0.299247845685535,-0.9177123203238224,-0.26125624198941566,0
430,-5.629,0.814,8.012,-0.0175,0.0175,0.0175,0,0,0,5.8013,34.9551,133.1483,81,-5.627305363984791,0.6967756321839226,8.040947356322006,34.88804934865973,4.9558888888889925,133.780002222225,0.24527982231009784,-0.9135144514524266,-0.3245445358577138,0
431,-5.5702,0.7257,7.8944,-0.0698,-0.0175,-0.0175,0,0,0,5.2526,35.0955,133.9243,83,-5.615258773946476,0.6800039846743435,8.010882681992504,34.93381716475169,4.854966666666767,133.79158329502192,0.2515584245306593,-0.8953640664691402,-0.36747999608617843,0
432,-5.629,0.6669,8.0022,-0.0524,-0.0175,-0.0349,0,0,0,4.764,35.0331,133.7766,84,-5.6228547892721465,0.6297814559387104,7.99635915708829,35.033380229885786,4.508752337164844,133.8204467432978,0.2650294029193459,-0.8484692957332324,-0.4581039945101635,0
433,-5.6192,0.8924,7.9336,-0.0349,-0.0175,0.0,0,0,0,6.4184,35.1421,133.4638,82,-5.629746360153374,0.6183237547892849,7.999842988505913,35.056828812261266,4.4208903448276775,133.815774176248,0.2578357143124427,-0.8391975762952849,-0.4788195613851964,0
434,-5.6682,0.4805,8.0709,-0.0524,-0.0175,0.0,0,0,0,3.4075,35.0356,134.0627,82,-5.635332873563335,0.6340500383141895,8.001880076628519,35.07023180076702,4.5229082758621635,133.81954275862347,0.25906517193798767,-0.8320173885013057,-0.4905428645085036,0
435,-5.6977,0.6276,8.1689,-0.0873,-0.0524,0.0,0,0,0,4.3938,34.8185,133.6368,82,-5.630483678161037,0.6254911877394767,7.9849150191572535,35.1063652107287,4.470030114942622,133.8069210727997,0.24332674374231514,-0.8176906419326461,-0.5217030859363772,0
436,-5.58,0.3334,7.8551,-0.0349,-0.0349,-0.0175,0,0,0,2.4308,35.3668,134.1071,84,-5.618628582375595,0.6104057471264495,7.968254559387138,35.10754858237621,4.3734291187740375,133.84748712643957,0.27608781677118144,-0.806565175663377,-0.5227122868630776,0
437,-5.6094,0.5884,7.9042,-0.0524,-0.0349,-0.0698,0,0,0,4.2577,35.2904,134.1048,83,-5.619656551724255,0.5851407662835371,7.960759157088289,35.14425011494326,4.197622911877481,133.90593678161198,0.31525467036153965,-0.7707758549484093,-0.5536416478587802,0
438,-5.5113,0.8238,7.8551,-0.0698,-0.0698,-0.0524,0,0,0,5.9871,34.9098,133.8471,83,-5.626868199233834,0.5822024521072918,7.97316597701166,35.13743532567123,4.172191340996255,133.9584160919568,0.3568531458049517,-0.7565728522957686,-0.5479537859146107,0
439,-5.6388,0.559,8.012,-0.0524,-0.0175,0.0,0,0,0,3.9912,35.0748,133.4355,83,-5.616608659003949,0.5704116475095904,7.95090352490438,35.16581624521146,4.096975095785526,134.01033877394914,0.3881242679321947,-0.7230357252609567,-0.5714708152114685,0
440,-5.6977,0.559,8.0415,-0.0698,-0.0524,0.0,0,0,0,3.9767,35.2565,133.6952,82,-5.609029885057588,0.5209591570881335,7.963155708812427,35.101129195403026,3.7404167816092735,134.09758842912157,0.4689535522178495,-0.7159306951927178,-0.517228968197966,0
441,-5.5506,0.255,7.6982,-0.0349,-0.0349,-0.0524,0,0,0,1.8971,35.7801,134.5642,83,-5.616521839080576,0.5206997701149534,7.9644472030652995,35.132784367816825,3.7316722605364756,134.08907080460048,0.4537537540181677,-0.7057685011578899,-0.5440573071724757,0
442,-5.6682,0.5492,8.0513,-0.0873,-0.0175,-0.0349,0,0,0,3.9024,35.0863,133.9609,84,-5.599914712643794,0.4871968582375581,7.937717241379476,35.15084268199307,3.506288735632257,134.19654858237828,0.5205893925378989,-0.6452689288252461,-0.5591195702796862,0
443,-5.5702,0.2942,7.914,-0.0698,-0.0175,-0.0349,0,0,0,2.1291,35.1234,134.9213,83,-5.59802229885069,0.47398245210728956,7.946817241379476,35.11483011494326,3.4057284291188448,134.27712459770393,0.5843276236643218,-0.6154833274866949,-0.5289059479800853,0
444,-5.7565,0.5884,8.1689,-0.0175,0.0,0.0,0,0,0,4.1201,35.1045,134.3797,81,-5.59374444444456,0.4764655938697417,7.94375739463618,35.10497578544134,3.4222278160920254,134.29189509578822,0.5969696573397204,-0.6104826330825199,-0.5205172263434998,0
445,-5.531,0.6767,8.0316,-0.0524,-0.0349,0.0,0,0,0,4.8161,34.461,134.1517,82,-5.589843678161035,0.46357616858238515,7.943152030651506,35.09103249042219,3.3318934865901073,134.33186321839358,0.6261032561173471,-0.5910667451620722,-0.5085615158884613,0
446,-5.5702,0.5688,7.9042,-0.0698,0.0,-0.0349,0,0,0,4.1162,35.1059,134.3828,82,-5.591055478927319,0.45661915708813217,7.9329624521074456,35.132020766284256,3.284328965517309,134.39370957854686,0.6448740568966347,-0.5374346586858336,-0.5434164502339964,0
447,-5.58,0.353,7.9728,-0.0873,-0.0175,0.0175,0,0,0,2.5356,34.9635,134.4263,82,-5.589941609195518,0.45529754789272975,7.94252076628369,35.0935897318015,3.2734059003832097,134.43456888889168,0.6823687214152441,-0.5229678888392926,-0.5107617010672378,0
448,-5.6094,0.3138,8.0316,-0.0698,0.0,0.0,0,0,0,2.2377,34.913,134.6998,81,-5.6025461302683155,0.4442413793103541,7.970537854406295,35.06193517241452,3.186563371647576,134.5032756321867,0.7297781821137735,-0.48357889566848494,-0.4832962410103812,0
449,-5.6192,0.5099,7.8551,-0.0524,-0.0175,-0.0698,0,0,0,3.7146,35.5239,134.3581,84,-5.613204061302798,0.4379760153256796,7.995581839080626,35.030693563219124,3.131851340996233,134.54198045977293,0.7604764504229665,-0.46260151729249915,-0.45571416979370183,0
450,-5.531,0.4511,7.9728,-0.0524,-0.0524,-0.0698,0,0,0,3.2386,34.7098,134.6219,83,-5.622832567049925,0.4315778544061392,7.99267241379327,35.09122888888962,3.0869231417625165,134.54067969348938,0.7349465571196436,-0.4483823417850307,-0.5087306101989091,0
451,-5.4623,0.2648,7.6492,-0.0698,-0.0524,0.0,0,0,0,1.9827,35.5171,134.6541,82,-5.625680306513527,0.41545831417625384,7.993026743295184,35.106992030652066,2.972943678160981,134.58516344827868,0.7470405710785567,-0.41133700000109463,-0.5222377404905961,0
452,-5.5996,0.3334,8.0611,-0.0524,-0.0349,0.0349,0,0,0,2.3687,34.7653,134.5463,83,-5.628014865900499,0.4163918007662922,7.993524597701315,35.114807356322565,2.9832426053640466,134.64675992337445,0.767231516841648,-0.3628150065106431,-0.5288866330467673,0
453,-5.6584,0.5982,7.8453,-0.0349,0.0,0.0,0,0,0,4.3607,35.7249,134.4546,81,-5.639164827586323,0.3842791570881306,8.008409425287523,35.12624582375552,2.7449544061303253,134.67858490421736,0.7727883385720846,-0.33578531852958815,-0.5385595636760897,0
454,-5.5898,0.2648,8.0807,0.0175,-0.0349,0.0,0,0,0,1.8769,34.6616,135.1175,81,-5.659701226053757,0.38628283524905016,8.001272567049973,35.24859026819996,2.7648551724138506,134.66103287356603,0.7012325481061313,-0.3194393055921356,-0.6373628821318328,0
455,-5.7761,0.5786,8.2376,-0.0524,0.0,0.0,0,0,0,4.018,34.9741,134.2185,81,-5.680271111111229,0.3762504214559465,7.91560352490438,35.60532306513484,2.7132539463602097,134.64933731801045,0.4520820235980091,-0.21236039062354856,-0.8663284068029531,0
456,-5.6584,0.4217,7.9728,-0.0698,-0.0349,-0.0175,0,0,0,3.0278,35.3288,134.5655,84,-5.727639616858356,0.4230252107279781,7.905121072797099,35.8873645977019,3.02238022988512,134.5549627586235,0.2054622893194018,-0.1213577458302146,-0.9711114998776605,0
457,-5.7271,0.2059,8.1297,-0.0524,-0.0349,-0.0175,0,0,0,1.4512,35.1572,134.827,82,-5.764856781609314,0.4454029885057563,7.903632950191735,36.109619233717225,3.162706436781674,134.51049555555835,0.01565840748500148,-0.010213938029348637,-0.9998252296001368,0
458,-5.6879,0.4217,7.9924,-0.0349,-0.0175,-0.0349,0,0,0,3.0204,35.4028,135.1629,83,-5.778026206896671,0.43748452107280594,7.905931570881391,36.15433455938773,3.09917095785447,134.52360375479208,-0.02197457426830804,0.01392680622140753,-0.999661523794028,0
459,-5.6682,0.2844,8.3258,-0.0175,0.0175,0.0,0,0,0,1.9565,34.2341,134.6907,82,-5.760081609195522,0.4366531034482849,7.927636858237713,35.99936666666741,3.0870600766284158,134.5596937164779,0.11102845867385676,-0.06487318364094155,-0.99169761087178,0
460,-5.7271,0.4903,7.9532,-0.0524,-0.0175,0.0,0,0,0,3.5282,35.7087,134.602,82,-5.720315249042265,0.4176900383141848,7.958591570881391,35.712710038314924,2.960495555555616,134.63085149425567,0.3621990850856618,-0.17838439174151255,-0.9148720301474519,0
461,-5.5408,0.3138,7.708,-0.0698,-0.0524,-0.0175,0,0,0,2.3315,35.6898,134.5545,83,-5.634654176245328,0.37124881226054396,7.9850154789273695,35.17183118774019,2.641146283524958,134.75992030651622,0.7734571194565856,-0.26368773853198274,-0.5763964442203038,0
462,-5.6094,0.3727,7.8355,-0.0524,-0.0873,0.0175,0,0,0,2.7231,35.5707,134.511,83,-5.533499616858352,0.31355923371648153,8.049735938697484,34.46533570881297,2.2506138697318465,134.9547464367844,0.9868624642519173,-0.1327732131100894,0.09205297676368872,0
463,-5.4917,0.0,8.0218,-0.0349,-0.0349,0.0175,0,0,0,0.0,34.3979,135.7442,82,-5.411761609195515,0.27360237547893274,8.124806896551892,33.63952965517311,1.9836324904214964,135.12601716475376,0.606990666699323,0.02279292138509263,0.7943820323211271,0
464,-5.6094,0.3432,7.9924,-0.0349,-0.0698,0.0,0,0,0,2.4592,35.0405,135.1382,82,-5.259701072797044,0.20413210727969763,8.214526743295188,32.60994582375547,1.5313032950191883,135.3173695019185,-0.35832996234311465,-0.08347940040484383,0.9298552724995593,0
465,-5.4721,0.353,7.8944,0.0,-0.0873,0.0,0,0,0,2.5608,34.7042,134.4773,81,-5.0803190804598755,0.12365961685824,8.293050574712815,31.489312796935515,1.00416275862071,135.53569149425567,-0.8992314083829143,-0.4312852790839371,0.07332040795829628,0
466,-5.3544,0.8532,7.7178,-0.0175,-0.4712,-0.0349,0,0,0,6.3087,34.5916,134.1786,84,-4.887905517241481,0.05156666666666768,8.396469655172588,30.21365371647572,0.5221908045977115,135.74110390804879,-0.28620787407265447,-0.21876197945149428,-0.9328602516804302,0
467,-5.1387,0.3727,8.1493,-0.3316,-0.8029,-0.2618,0,0,0,2.6184,32.2095,134.9353,83,-4.6926585440614,0.021928659003831785,8.52025210727987,28.914614942529333,0.3400442145593933,135.94513256705264,0.5252416990173041,0.6059781181238721,-0.5974208549828722,0
468,-4.7758,0.2452,9.4732,-0.1745,-0.4712,-0.192,0,0,0,1.4826,26.7488,135.7902,83,-4.479158544061396,-0.08054865900383312,8.643901839080641,27.488014482759187,-0.3238687356321908,136.199791340999,0.3133059330014548,0.6331809825917111,0.7077578933719377,0
469,-4.0109,-0.7061,8.8456,-0.1571,-0.4538,-0.192,0,0,0,-4.5642,24.3247,137.1708,86,-4.258950268199322,-0.17753134099617224,8.76877195402317,25.98473532567104,-0.9448029118774142,136.37705218391088,-0.18338536200136094,-0.6324322917600906,0.752594980944405,0
470,-3.501,-0.9414,8.7966,-0.2443,-0.5236,-0.0524,0,0,0,-6.1092,21.5919,138.1778,85,-4.025082528735716,-0.24392076628352993,8.890194865900568,24.44126245210779,-1.3724208429119056,136.58037670498368,-0.06071679853849058,-0.7679072414052621,-0.6376769863909131,0
