capture duration,Gyroscope X (rad/s),Gyroscope Y (rad/s),Gyroscope Z (rad/s),Accelerometer X (m/s²),Accelerometer Y (m/s²),Accelerometer Z (m/s²),Magnetometer X (mT),Magnetometer Y (mT),Magnetometer Z (mT)
0,-0.05235988,0.00000000,0.01745329,1.00027835,0.56878566,9.67916393,-0.00100000,-0.00100000,0.00100000
1,-0.05235988,-0.01745329,0.00000000,1.00027835,0.66685223,9.53206443,0.00000000,-0.00200000,0.00100000
2,-0.03490658,-0.01745329,-0.01745329,1.02969825,0.64723892,9.57129096,-0.00200000,-0.00200000,-0.00100000
3,-0.03490658,0.01745329,-0.01745329,1.00027835,0.64723892,9.63013076,-0.00100000,-0.00200000,0.00000000
4,-0.01745329,0.01745329,0.00000000,1.13757133,0.61781892,9.50264358,-0.00200000,-0.00200000,-0.00100000
5,-0.03490658,-0.01745329,0.00000000,1.14737808,0.67665886,9.32612419,-0.00100000,-0.00100000,-0.00100000
6,-0.01745329,-0.06981317,0.01745329,1.03950488,0.59820566,9.52225780,-0.00200000,-0.00100000,0.00000000
7,-0.03490658,0.01745329,-0.03490658,0.92182512,0.71588544,10.03220272,-0.00100000,-0.00100000,0.00100000
8,-0.05235988,0.10471976,0.01745329,1.01008498,0.54917240,9.74781036,-0.00100000,-0.00100000,0.00000000
9,-0.01745329,0.01745329,0.00000000,1.29447782,0.80414533,9.44380378,0.00000000,-0.00100000,0.00000000
10,-0.03490658,-0.06981317,-0.03490658,1.21602463,0.69627218,9.63013076,0.00000000,-0.00100000,0.00000000
11,-0.05235988,-0.03490658,0.01745329,1.01989161,0.40207266,10.07142925,0.00000000,-0.00200000,-0.00100000
12,-0.05235988,0.05235988,0.05235988,1.01008498,0.63743219,9.97336292,-0.00200000,-0.00100000,0.00000000
13,-0.06981317,0.01745329,-0.01745329,1.13757133,0.80414533,9.54187011,-0.00100000,-0.00100000,0.00000000
14,-0.06981317,-0.01745329,-0.01745329,1.10815143,0.60801229,9.50264358,0.00000000,-0.00100000,0.00000000
15,-0.05235988,0.00000000,0.00000000,1.05911827,0.71588544,9.63993644,-0.00200000,-0.00200000,-0.00100000
16,-0.05235988,-0.01745329,0.01745329,1.11795806,0.69627218,9.52225780,-0.00100000,-0.00300000,0.00000000
17,-0.05235988,-0.03490658,-0.01745329,1.05911827,0.73549880,9.59090328,0.00000000,-0.00200000,0.00200000
18,-0.03490658,-0.01745329,0.00000000,0.91201848,0.77472538,9.67916393,0.00000000,-0.00200000,-0.00100000
19,-0.03490658,0.00000000,-0.01745329,0.97085838,0.72569208,9.57129096,-0.00200000,-0.00100000,0.00000000
20,-0.03490658,0.00000000,0.01745329,1.01989161,0.74530534,9.45361042,-0.00100000,-0.00200000,0.00000000
21,0.00000000,-0.03490658,0.00000000,1.06892478,0.99047174,9.42419147,-0.00200000,-0.00100000,0.00000000
22,-0.03490658,-0.03490658,-0.01745329,1.05911827,0.75511207,9.69877719,0.00000000,-0.00200000,-0.00100000
23,-0.01745329,0.01745329,0.06981317,0.90221185,0.79433865,9.47322463,-0.00100000,-0.00100000,0.00100000
24,-0.01745329,-0.03490658,-0.01745329,0.84337196,1.22583127,9.37515735,-0.00100000,-0.00200000,0.00100000
25,-0.03490658,0.01745329,0.01745329,0.62762565,0.79433865,9.62032413,-0.00100000,-0.00200000,-0.00200000
26,0.00000000,0.15707963,0.05235988,0.67665886,0.97085838,9.46341705,-0.00100000,0.00000000,0.00000000
27,-0.01745329,0.15707963,0.03490658,1.01989161,0.83356533,9.08095836,-0.00100000,-0.00200000,0.00000000
28,0.10471976,-0.01745329,0.10471976,1.03950488,1.04931151,8.99269771,0.00000000,-0.00100000,0.00000000
29,-0.03490658,-0.05235988,0.06981317,0.48052587,0.70607876,9.93413639,0.00000000,-0.00100000,0.00000000
30,-0.01745329,0.15707963,0.05235988,0.00980665,1.18660461,10.64021587,0.00000000,-0.00100000,0.00100000
31,0.05235988,0.12217305,0.12217305,0.00980665,1.52983751,10.08123588,-0.00100000,-0.00400000,0.00000000
32,0.01745329,-0.20943951,0.01745329,-0.67665886,1.48080406,11.58165359,-0.00200000,-0.00100000,0.00100000
33,-0.17453291,-0.48869218,0.08726646,-2.33398270,0.50994582,12.80748462,-0.00100000,-0.00100000,0.00000000
34,-0.22689280,0.31415927,0.33161256,-2.99102830,0.88259859,14.47461509,-0.00200000,-0.00100000,0.00100000
35,0.06981317,1.39626336,0.43633232,-4.07956647,1.53964414,12.01314640,-0.00100000,-0.00100000,0.00100000
36,0.45378561,1.69296932,0.83775806,-3.60884737,0.50013918,7.30595445,0.00100000,-0.00300000,0.00100000
37,0.36651916,0.73303833,0.33161256,-3.17735457,1.57887067,5.30539798,0.00200000,-0.00300000,0.00100000
38,0.76794486,0.05235988,0.08726646,-2.57914900,2.13784956,7.89435338,0.00200000,-0.00200000,0.00500000
39,0.87266464,0.00000000,0.13962633,-0.49033250,0.45110592,9.34573745,0.00100000,-0.00200000,0.00200000
40,0.90757122,0.08726646,0.69813165,0.89240512,-0.32361946,9.53206443,0.00200000,-0.00300000,0.00600000
41,0.94247779,0.20943951,0.62831854,2.23591613,0.99047174,9.19863796,0.00300000,-0.00300000,0.00300000
42,0.62831854,0.10471976,0.59341192,2.26533627,-0.20593965,9.32612419,0.00200000,-0.00400000,0.00400000
43,0.61086521,0.26179938,0.64577178,1.72597036,1.14737808,10.06162357,0.00400000,-0.00500000,0.00500000
44,0.71558499,0.59341192,0.34906582,1.81423034,1.65732383,10.43427562,0.00200000,-0.00600000,0.00600000
45,0.33161256,0.57595868,0.36651916,2.42224264,0.08825984,8.99269771,0.00300000,-0.00400000,0.00600000
46,0.40142574,0.31415927,0.64577178,2.64779567,0.71588544,9.15941143,0.00200000,-0.00700000,0.00400000
47,0.45378561,0.27925267,0.59341192,1.25525128,1.96133003,10.34601497,0.00500000,-0.00800000,0.00600000
48,0.22689280,0.20943951,0.24434609,1.08853816,1.26505780,10.53234195,0.00400000,-0.00700000,0.00600000
49,0.00000000,0.26179938,0.41887903,0.46091256,0.65704560,10.53234195,0.00500000,-0.00800000,0.00700000
50,-0.03490658,0.27925267,0.50614547,0.64723892,1.74558377,8.30623245,0.00400000,-0.00700000,0.00600000
51,0.08726646,-0.19198621,0.22689280,0.61781892,2.75566864,9.52225780,0.00300000,-0.00700000,0.00700000
52,-0.26179938,-0.26179938,-0.01745329,0.41187930,1.34351098,10.92460823,0.00500000,-0.00800000,0.00700000
53,-0.24434609,0.12217305,0.24434609,0.01961330,1.26505780,10.56176280,0.00300000,-0.00700000,0.00600000
54,-0.15707963,0.36651916,0.31415927,0.59820566,1.99074993,9.60070991,0.00400000,-0.00700000,0.00700000
55,-0.05235988,0.12217305,0.06981317,1.38273775,2.54972887,8.58081912,0.00300000,-0.00800000,0.00900000
56,-0.01745329,-0.29670596,0.12217305,0.91201848,1.45138416,9.36535072,0.00200000,-0.00800000,0.00700000
57,0.00000000,0.03490658,0.27925267,0.01961330,1.39254438,9.65955066,0.00300000,-0.00900000,0.00700000
58,0.01745329,0.03490658,0.15707963,-0.22555296,1.82403697,10.48330879,0.00200000,-0.00800000,0.00700000
59,0.06981317,0.20943951,0.22689280,-0.45110592,1.77500367,9.65955066,0.00300000,-0.00800000,0.00800000
60,-0.01745329,0.29670596,0.10471976,-0.04903325,2.02997660,9.02211856,0.00500000,-0.00700000,0.00800000
61,-0.19198621,0.10471976,-0.12217305,0.37265267,1.46119093,8.96327781,0.00300000,-0.00900000,0.00700000
62,-0.12217305,-0.12217305,0.17453291,0.13729310,1.06892478,9.01231193,0.00300000,-0.00900000,0.00800000
63,-0.24434609,-0.15707963,0.13962633,0.15690641,1.85345687,10.09104347,0.00200000,-0.00800000,0.00800000
64,-0.19198621,0.01745329,0.20943951,-0.15690641,1.79461693,10.25775623,0.00200000,-0.00700000,0.00800000
65,-0.26179938,0.00000000,-0.01745329,0.13729310,2.26533627,9.79684352,0.00100000,-0.00800000,0.01000000
66,-0.19198621,0.01745329,0.01745329,-0.39226600,1.68674383,10.54214954,0.00200000,-0.00800000,0.00900000
67,-0.26179938,0.22689280,-0.05235988,-0.72569208,1.46119093,10.17930316,0.00100000,-0.00800000,0.00900000
68,-0.20943951,0.34906582,0.15707963,-0.82375860,1.42196426,8.65927219,0.00200000,-0.00900000,0.00900000
69,-0.10471976,0.08726646,0.22689280,-0.12748645,2.02016997,8.45333194,0.00100000,-0.00800000,0.01000000
70,-0.17453291,-0.15707963,-0.15707963,-0.36284604,1.89268350,9.49283695,0.00000000,-0.00800000,0.00900000
71,-0.13962633,0.03490658,0.12217305,-0.88259859,0.86298522,9.47322463,0.00200000,-0.00900000,0.00900000
72,-0.10471976,0.03490658,0.06981317,-0.43149261,1.84365024,9.17902469,0.00200000,-0.00900000,0.00900000
73,-0.13962633,-0.15707963,-0.05235988,-0.28439283,1.77500367,9.44380378,0.00100000,-0.01000000,0.01000000
74,-0.17453291,-0.01745329,0.01745329,-0.50994582,1.44157752,10.06162357,0.00100000,-0.01000000,0.01100000
75,-0.15707963,0.12217305,-0.03490658,-0.29419948,1.72597036,10.12046241,0.00100000,-0.01100000,0.01000000
76,-0.22689280,0.20943951,-0.29670596,0.61781892,1.68674383,10.24794864,0.00000000,-0.00900000,0.01000000
77,-0.22689280,0.12217305,-0.05235988,0.76491875,0.81395187,9.17902469,0.00100000,-0.01000000,0.01100000
78,-0.29670596,-0.10471976,-0.05235988,0.69627218,1.30428445,9.48303031,0.00100000,-0.00800000,0.01200000
79,-0.26179938,-0.05235988,-0.03490658,0.24516625,1.40235099,10.15968990,0.00100000,-0.00900000,0.01200000
80,-0.26179938,0.22689280,-0.12217305,-0.12748645,1.37293100,9.75761699,0.00100000,-0.01000000,0.01100000
81,-0.27925267,0.15707963,-0.01745329,-0.17651968,1.11795806,9.30651092,-0.00100000,-0.00900000,0.01200000
82,-0.17453291,0.12217305,-0.06981317,-0.64723892,1.95152339,9.48303031,0.00000000,-0.01000000,0.01200000
83,-0.36651916,0.45378561,-0.22689280,-0.60801229,1.17679798,10.51272964,-0.00100000,-0.01200000,0.01200000
84,-0.29670596,0.55850534,-0.19198621,0.43149261,1.38273775,10.50292205,-0.00100000,-0.01000000,0.01300000
85,-0.29670596,0.38397243,-0.19198621,0.39226600,1.12776482,9.28689765,0.00100000,-0.01000000,0.01300000
86,-0.31415927,0.19198621,-0.26179938,-0.01961330,0.97085838,9.63993644,0.00100000,-0.01200000,0.01300000
87,-0.33161256,0.33161256,-0.19198621,-0.81395187,0.87279186,10.23814296,0.00000000,-0.01100000,0.01300000
88,-0.22689280,0.43633232,-0.31415927,-0.96105175,1.46119093,9.24767112,0.00000000,-0.01200000,0.01400000
89,-0.26179938,0.29670596,-0.43633232,-0.40207266,0.85317859,9.19863796,0.00000000,-0.01100000,0.01500000
90,-0.29670596,0.34906582,-0.38397243,-0.09806651,0.38245937,9.77723026,-0.00100000,-0.01300000,0.01500000
91,-0.27925267,0.27925267,-0.26179938,-0.13729310,0.52955913,9.27709102,0.00100000,-0.01300000,0.01400000
92,-0.29670596,0.20943951,-0.29670596,-0.87279186,0.96105175,9.53206443,0.00200000,-0.01200000,0.01400000
93,-0.31415927,0.26179938,-0.38397243,-1.33370447,0.99047174,9.60070991,0.00000000,-0.01300000,0.01400000
94,-0.33161256,0.20943951,-0.33161256,-0.59820566,0.60801229,9.81645679,0.00300000,-0.01200000,0.01400000
95,-0.29670596,0.06981317,-0.27925267,-1.01989161,0.69627218,9.27709102,-0.00100000,-0.01300000,0.01500000
96,-0.24434609,0.03490658,-0.31415927,-1.08853816,0.93163175,9.73800373,0.00100000,-0.01400000,0.01500000
97,-0.24434609,0.05235988,-0.19198621,-1.35331773,0.72569208,9.38496398,0.00300000,-0.01200000,0.01400000
98,-0.38397243,0.06981317,-0.38397243,-1.31409120,0.64723892,9.72819709,0.00100000,-0.01500000,0.01500000
99,-0.31415927,0.05235988,-0.33161256,-1.17679798,0.67665886,9.60070991,0.00200000,-0.01400000,0.01600000
100,-0.29670596,-0.03490658,-0.34906582,-1.09834480,0.73549880,9.31631755,0.00300000,-0.01500000,0.01400000
101,-0.29670596,-0.15707963,-0.43633232,-1.31409120,0.65704560,9.79684352,0.00400000,-0.01500000,0.01300000
102,-0.19198621,-0.01745329,-0.38397243,-1.85345687,0.50013918,9.41438388,0.00400000,-0.01400000,0.01400000
103,-0.24434609,0.00000000,-0.47123889,-1.19641137,0.27458620,9.81645679,0.00400000,-0.01500000,0.01400000
104,-0.31415927,0.01745329,-0.47123889,-1.05911827,-0.03922660,10.25775623,0.00400000,-0.01500000,0.01400000
105,-0.24434609,0.22689280,-0.41887903,-1.10815143,0.40207266,10.42446899,0.00500000,-0.01500000,0.01500000
106,-0.17453291,0.24434609,-0.45378561,-1.01989161,0.33342611,9.49283695,0.00600000,-0.01800000,0.01300000
107,-0.17453291,0.13962633,-0.41887903,-0.92182512,-0.14709974,9.46341705,0.00800000,-0.01500000,0.01400000
108,-0.15707963,0.12217305,-0.40142574,-1.06892478,0.15690641,9.81645679,0.00700000,-0.01600000,0.01500000
109,-0.19198621,0.06981317,-0.47123889,-1.06892478,0.15690641,9.85568332,0.00900000,-0.01500000,0.01400000
110,-0.19198621,0.05235988,-0.43633232,-1.07873153,-0.03922660,9.90471649,0.00900000,-0.01600000,0.01400000
111,-0.17453291,0.03490658,-0.43633232,-0.94143848,0.08825984,9.28689765,0.01000000,-0.01500000,0.01400000
112,-0.15707963,-0.12217305,-0.47123889,-0.99047174,0.24516625,9.37515735,0.01100000,-0.01300000,0.01500000
113,-0.12217305,0.01745329,-0.43633232,-1.47099757,-0.02941995,10.17930316,0.01100000,-0.01300000,0.01400000
114,-0.03490658,0.13962633,-0.38397243,-0.97085838,0.13729310,9.59090328,0.01100000,-0.01300000,0.01400000
115,0.00000000,0.05235988,-0.33161256,-0.93163175,0.03922660,9.30651092,0.01300000,-0.01200000,0.01400000
116,0.05235988,0.08726646,-0.33161256,-1.03950488,0.24516625,9.78703689,0.01100000,-0.01200000,0.01400000
117,-0.05235988,0.22689280,-0.33161256,-0.89240512,0.35303938,9.53206443,0.01200000,-0.01100000,0.01500000
118,0.03490658,0.15707963,-0.41887903,-0.36284604,0.50994582,8.98289203,0.01300000,-0.01000000,0.01500000
119,0.08726646,-0.05235988,-0.26179938,-0.51975245,-0.42168598,9.40457725,0.01300000,-0.00900000,0.01300000
120,0.08726646,0.05235988,-0.20943951,-1.06892478,0.12748645,10.04201030,0.01400000,-0.00800000,0.01500000
121,0.06981317,0.15707963,-0.29670596,-0.91201848,0.22555296,9.28689765,0.01400000,-0.00800000,0.01500000
122,0.03490658,0.00000000,-0.34906582,-0.50013918,-0.04903325,9.16921806,0.01300000,-0.00600000,0.01400000
123,-0.05235988,-0.03490658,-0.26179938,-0.63743219,-0.34323275,9.64974403,0.01400000,-0.00700000,0.01600000
124,0.00000000,0.03490658,-0.24434609,-1.04931151,0.19613300,9.56148433,0.01300000,-0.00600000,0.01400000
125,0.01745329,0.06981317,-0.26179938,-1.08853816,0.21574630,9.17902469,0.01300000,-0.00700000,0.01700000
126,-0.01745329,0.00000000,-0.31415927,-0.94143848,-0.00980665,9.56148433,0.01400000,-0.00500000,0.01500000
127,0.00000000,0.12217305,-0.27925267,-1.25525128,0.03922660,9.63013076,0.01300000,-0.00600000,0.01500000
128,-0.03490658,0.12217305,-0.34906582,-1.02969825,0.06864655,9.28689765,0.01500000,-0.00600000,0.01500000
129,-0.06981317,0.13962633,-0.26179938,-1.08853816,-0.45110592,10.01259040,0.01200000,-0.00300000,0.01600000
130,-0.06981317,0.15707963,-0.15707963,-0.91201848,-0.15690641,9.41438388,0.01400000,-0.00500000,0.01500000
131,-0.08726646,0.17453291,-0.17453291,-0.89240512,0.11767981,9.19863796,0.01400000,-0.00600000,0.01500000
132,-0.13962633,0.06981317,-0.13962633,-0.67665886,-0.21574630,8.52197933,0.01300000,-0.00400000,0.01600000
133,-0.13962633,-0.10471976,-0.03490658,-0.64723892,-0.52955913,9.50264358,0.01300000,-0.00400000,0.01400000
134,-0.06981317,0.15707963,0.12217305,-1.26505780,-0.04903325,10.42446899,0.01300000,-0.00500000,0.01500000
135,-0.05235988,0.13962633,0.03490658,-1.28467119,0.72569208,9.19863796,0.01100000,-0.00300000,0.01500000
136,-0.10471976,0.15707963,-0.17453291,-1.16699135,0.27458620,10.31659603,0.01300000,-0.00500000,0.01600000
137,-0.10471976,0.34906582,0.05235988,-1.51022410,-0.63743219,9.65955066,0.01300000,-0.00400000,0.01500000
138,-0.03490658,-0.05235988,-0.03490658,-1.01008498,0.52955913,9.21825122,0.01300000,-0.00300000,0.01600000
139,-0.08726646,0.01745329,-0.01745329,-2.05939650,-0.00980665,10.82654190,0.01300000,-0.00400000,0.01500000
140,-0.06981317,0.31415927,-0.13962633,-1.92210340,0.50994582,10.54214954,0.01200000,-0.00300000,0.01500000
141,-0.08726646,0.08726646,-0.20943951,-1.13757133,-0.01961330,9.06134510,0.01500000,-0.00600000,0.01700000
142,-0.13962633,-0.12217305,-0.20943951,-1.53964414,0.02941995,9.82626342,0.01400000,-0.00600000,0.01700000
143,-0.13962633,0.05235988,-0.22689280,-2.08881640,-0.19613300,10.42446899,0.01200000,-0.00400000,0.01500000
144,-0.08726646,0.15707963,-0.17453291,-1.69655036,-0.01961330,9.34573745,0.01200000,-0.00400000,0.01500000
145,-0.17453291,-0.13962633,-0.38397243,-1.36312437,0.27458620,8.67888545,0.01400000,-0.00300000,0.01700000
146,-0.13962633,-0.15707963,-0.40142574,-1.84365024,-0.20593965,9.84587669,0.01400000,-0.00300000,0.01600000
147,-0.08726646,0.12217305,-0.34906582,-1.86326351,-0.27458620,10.45388889,0.01300000,-0.00400000,0.01600000
148,-0.05235988,0.15707963,-0.29670596,-1.19641137,-0.27458620,9.25747776,0.01300000,-0.00400000,0.01500000
149,-0.03490658,-0.05235988,-0.22689280,-1.29447782,-0.57859234,9.14960479,0.01400000,-0.00400000,0.01600000
150,-0.03490658,-0.05235988,-0.22689280,-1.52983751,-0.13729310,9.73800373,0.01500000,-0.00300000,0.01600000
151,-0.01745329,0.03490658,-0.27925267,-1.38273775,-0.21574630,9.51245117,0.01500000,-0.00400000,0.01500000
152,0.01745329,-0.08726646,-0.17453291,-1.16699135,-0.50994582,9.07115173,0.01400000,-0.00300000,0.01600000
153,-0.03490658,-0.12217305,-0.13962633,-1.58867731,-0.32361946,9.88510322,0.01500000,-0.00300000,0.01500000
154,-0.03490658,0.12217305,-0.10471976,-1.84365024,-0.14709974,9.66935729,0.01400000,-0.00300000,0.01500000
155,0.00000000,0.08726646,-0.22689280,-1.42196426,0.46091256,8.95347118,0.01800000,-0.00300000,0.01600000
156,0.00000000,0.01745329,-0.29670596,-1.47099757,0.00980665,9.62032413,0.01600000,-0.00400000,0.01400000
157,0.05235988,0.17453291,-0.19198621,-1.57887067,-0.30400614,9.86549091,0.01600000,-0.00300000,0.01500000
158,0.03490658,0.22689280,-0.20943951,-1.43177089,-0.00980665,9.02211856,0.01700000,-0.00200000,0.01600000
159,0.01745329,0.00000000,-0.24434609,-1.35331773,0.03922660,9.06134510,0.01600000,-0.00200000,0.01600000
160,0.03490658,0.03490658,-0.22689280,-1.75539040,-0.04903325,9.96355724,0.01700000,-0.00200000,0.01500000
161,0.08726646,0.19198621,-0.22689280,-1.80442371,0.18632633,10.00278282,0.01600000,-0.00200000,0.01500000
162,0.06981317,0.24434609,-0.29670596,-1.73577713,0.00980665,10.04201030,0.01700000,-0.00100000,0.01600000
163,0.10471976,0.40142574,-0.17453291,-1.85345687,-0.14709974,9.90471649,0.01600000,-0.00300000,0.01600000
164,0.15707963,0.40142574,-0.20943951,-1.59848403,0.30400614,9.17902469,0.01700000,0.00000000,0.01600000
165,0.12217305,0.27925267,-0.22689280,-1.75539040,-0.19613300,10.10084915,0.01900000,-0.00100000,0.01700000
166,0.13962633,0.54105205,-0.13962633,-2.22610950,-0.12748645,10.63040828,0.01700000,-0.00100000,0.01700000
167,0.17453291,0.68067841,-0.19198621,-2.17707633,0.39226600,9.68897056,0.01800000,0.00000000,0.01700000
168,0.12217305,0.57595868,-0.27925267,-2.21630287,0.20593965,9.65955066,0.01800000,0.00000000,0.01900000
169,0.15707963,0.64577178,-0.20943951,-2.17707633,-0.24516625,10.14988231,0.01900000,0.00000000,0.01900000
170,0.08726646,0.64577178,-0.12217305,-2.13784956,-0.22555296,9.42419147,0.01900000,-0.00100000,0.01900000
171,0.15707963,0.52359876,-0.15707963,-2.65760207,0.45110592,9.80665016,0.02000000,0.00100000,0.01900000
172,0.15707963,0.68067841,-0.20943951,-2.86354179,0.31381282,10.23814296,0.02000000,0.00000000,0.02100000
173,0.10471976,0.69813165,-0.22689280,-2.30456280,-0.01961330,9.72819709,0.02200000,0.00100000,0.02000000
174,0.10471976,0.57595868,-0.12217305,-2.24572300,0.03922660,9.37515735,0.02000000,0.00200000,0.02000000
175,0.12217305,0.47123889,-0.17453291,-2.46146917,0.36284604,9.53206443,0.02000000,0.00200000,0.01900000
176,0.06981317,0.50614547,-0.15707963,-2.84392852,-0.06864655,9.71839046,0.02000000,0.00300000,0.02000000
177,0.08726646,0.54105205,-0.15707963,-2.96160812,0.16671305,9.62032413,0.02100000,0.00300000,0.02100000
178,0.05235988,0.54105205,-0.17453291,-2.98122138,0.04903325,9.92432975,0.02200000,0.00200000,0.02100000
179,0.10471976,0.69813165,-0.10471976,-3.20677447,0.00000000,9.99297714,0.02100000,0.00300000,0.02200000
180,0.12217305,0.69813165,-0.13962633,-2.97141504,0.04903325,9.38496398,0.02100000,0.00200000,0.02400000
181,0.12217305,0.66322512,-0.03490658,-3.28522777,-0.34323275,9.47322463,0.02100000,0.00400000,0.02300000
182,0.15707963,0.73303833,-0.01745329,-3.63826704,0.15690641,9.89490985,0.02300000,0.00200000,0.02400000
183,0.17453291,0.89011783,-0.10471976,-3.81478691,0.38245937,10.17930316,0.02300000,0.00200000,0.02600000
184,0.20943951,1.02974426,-0.10471976,-3.72652697,0.09806651,9.69877719,0.02300000,0.00300000,0.02400000
185,0.15707963,0.85521135,-0.06981317,-3.73633384,0.02941995,9.37515735,0.02200000,0.00200000,0.02600000
186,0.20943951,0.95993108,-0.06981317,-4.06975984,0.47071924,10.01259040,0.02200000,0.00400000,0.02600000
187,0.22689280,1.13446402,-0.12217305,-4.23647308,0.47071924,10.12046241,0.02400000,0.00300000,0.02600000
188,0.26179938,1.11701071,-0.13962633,-4.32473278,0.66685223,9.13979816,0.02300000,0.00400000,0.02800000
189,0.22689280,1.06465089,-0.20943951,-4.44241237,0.61781892,9.49283695,0.02300000,0.00400000,0.02900000
190,0.22689280,1.18682384,-0.19198621,-4.03053331,0.35303938,9.16921806,0.02300000,0.00400000,0.02800000
191,0.10471976,0.94247779,-0.15707963,-1.27486443,-0.31381282,7.80609369,0.02200000,0.00500000,0.03100000
192,-0.20943951,-0.47123889,0.40142574,-3.66768717,-1.01008498,8.52197933,0.02500000,0.00500000,0.03000000
193,-0.13962633,0.22689280,0.22689280,-7.18827438,2.19668960,12.43483257,0.02500000,0.00500000,0.03000000
194,-0.03490658,1.27409029,-0.34906582,-5.97224998,2.03978323,10.00278282,0.02400000,0.00400000,0.03100000
195,0.26179938,1.27409029,-0.19198621,-4.42279911,0.39226600,7.22750091,0.02400000,0.00500000,0.03100000
196,0.34906582,1.06465089,-0.24434609,-4.86409854,1.02969825,7.71783351,0.02400000,0.00500000,0.03100000
197,0.45378561,1.23918378,-0.29670596,-5.39365768,0.81395187,8.21797275,0.02600000,0.00500000,0.03300000
198,0.36651916,1.08210409,-0.36651916,-4.71699857,0.67665886,7.29614782,0.02600000,0.00500000,0.03400000
199,0.26179938,0.82030477,-0.31415927,-4.78564548,0.18632633,8.42391300,0.02600000,0.00400000,0.03500000
200,0.19198621,0.92502450,-0.31415927,-4.97197198,0.35303938,8.51217174,0.02600000,0.00600000,0.03700000
201,0.17453291,0.85521135,-0.24434609,-4.90332508,0.12748645,7.98261356,0.02500000,0.00500000,0.03600000
202,0.15707963,0.78539819,-0.15707963,-5.18771791,0.24516625,8.06106662,0.02400000,0.00400000,0.03700000
203,0.24434609,0.94247779,-0.19198621,-5.80553674,0.74530534,8.73772525,0.02500000,0.00600000,0.03600000
204,0.54105205,1.25663709,-0.24434609,-6.12915611,1.16699135,8.58081912,0.02700000,0.00500000,0.03800000
205,0.10471976,1.25663709,-0.33161256,-6.07031679,-0.31381282,7.91396665,0.02700000,0.00500000,0.03800000
206,0.47123889,1.29154359,-0.22689280,-6.59006881,1.13757133,7.84532022,0.02700000,0.00400000,0.04200000
207,0.45378561,1.27409029,-0.19198621,-6.82542848,1.03950488,8.03164672,0.02500000,0.00400000,0.04000000
208,0.40142574,1.48352980,-0.38397243,-6.92349481,1.32389783,8.18855285,0.02500000,0.00600000,0.04100000
209,0.38397243,1.46607661,-0.38397243,-6.31548261,0.65704560,7.26672792,0.02700000,0.00500000,0.04300000
210,0.31415927,1.09955739,-0.24434609,-6.21741628,0.41187930,6.28606271,0.02600000,0.00600000,0.04300000
211,0.27925267,0.94247779,-0.24434609,-7.10001468,0.97085838,7.29614782,0.02500000,0.00600000,0.04300000
212,0.26179938,1.16937053,-0.29670596,-7.24711465,1.04931151,7.92377376,0.02600000,0.00600000,0.04400000
213,0.26179938,1.11701071,-0.22689280,-7.17846775,0.87279186,6.92349481,0.02700000,0.00700000,0.04600000
214,0.27925267,1.09955739,-0.27925267,-7.77667331,1.50041747,7.20788812,0.02600000,0.00500000,0.04600000
215,0.24434609,1.25663709,-0.43633232,-7.59034729,1.10815143,7.32556724,0.02700000,0.00600000,0.04600000
216,0.20943951,1.08210409,-0.29670596,-6.62929534,0.35303938,5.67805051,0.02700000,0.00800000,0.04600000
217,0.06981317,0.54105205,-0.17453291,-6.83523559,0.42168598,5.43288421,0.02700000,0.00600000,0.04800000
218,-0.01745329,0.62831854,-0.19198621,-8.14932632,1.11795806,7.57073402,0.02600000,0.00700000,0.04900000
219,0.13962633,1.16937053,-0.20943951,-8.54159259,1.46119093,7.19808149,0.02600000,0.00800000,0.05100000
220,0.13962633,1.02974426,-0.34906582,-7.67860698,1.04931151,5.61921072,0.02800000,0.00700000,0.05100000
221,0.20943951,1.04719758,-0.12217305,-7.68841361,0.19613300,6.37432241,0.02700000,0.00700000,0.05100000
222,0.19198621,1.08210409,-0.13962633,-7.83551359,1.00027835,5.72708368,0.02600000,0.00700000,0.05200000
223,0.13962633,0.85521135,-0.15707963,-8.00222682,0.78453202,4.97197198,0.02500000,0.00700000,0.05400000
224,0.12217305,0.75049157,-0.13962633,-8.49255943,0.99047174,5.62901735,0.02600000,0.00800000,0.05500000
225,0.08726646,1.01229095,-0.27925267,-8.78675842,1.01989161,6.42335557,0.02500000,0.00700000,0.05500000
226,0.05235988,1.08210409,-0.20943951,-8.37487888,0.28439283,5.49172401,0.02700000,0.00800000,0.05500000
227,0.01745329,0.99483766,-0.10471976,-8.44352626,0.35303938,5.23675107,0.02500000,0.00800000,0.05600000
228,0.12217305,1.02974426,-0.08726646,-8.39449214,1.01989161,4.94255161,0.02500000,0.00900000,0.05700000
229,0.17453291,0.87266464,-0.06981317,-8.11009979,0.53936576,4.24627971,0.02400000,0.00800000,0.05800000
230,0.15707963,0.61086521,0.03490658,-8.56120586,0.48052587,5.11907148,0.02500000,0.00800000,0.05800000
231,0.13962633,0.87266464,0.00000000,-8.94366455,0.68646550,5.78592348,0.02500000,0.01000000,0.05800000
232,0.15707963,0.95993108,0.03490658,-8.61023902,0.65704560,4.66796541,0.02400000,0.00900000,0.05900000
233,0.12217305,0.73303833,0.03490658,-8.54159259,0.70607876,4.12859964,0.02500000,0.01000000,0.05800000
234,0.03490658,0.71558499,-0.03490658,-8.56120586,0.49033250,5.35443115,0.02500000,0.00900000,0.06100000
235,0.08726646,0.89011783,0.12217305,-8.53178596,0.29419948,4.15801954,0.02500000,0.00800000,0.06000000
236,0.00000000,0.57595868,0.01745329,-8.52197933,0.87279186,3.59904074,0.02500000,0.00900000,0.06100000
237,0.01745329,0.64577178,-0.03490658,-9.13979816,0.77472538,4.94255161,0.02300000,0.01000000,0.06100000
238,0.03490658,0.89011783,-0.08726646,-8.95347118,0.73549880,4.15801954,0.02400000,0.01000000,0.06100000
239,0.08726646,0.76794486,0.00000000,-8.58081912,0.47071924,3.28522777,0.02400000,0.01000000,0.06199999
240,0.06981317,0.69813165,-0.10471976,-9.13979816,1.01989161,3.54020071,0.02300000,0.00900000,0.06300001
241,0.08726646,0.85521135,-0.17453291,-9.35554409,0.50994582,4.02072668,0.02400000,0.00900000,0.06300001
242,0.12217305,0.89011783,-0.06981317,-9.16921806,0.27458620,2.94199514,0.02300000,0.00900000,0.06300001
243,0.12217305,0.68067841,-0.06981317,-9.31631755,0.62762565,2.59876203,0.02400000,0.00800000,0.06500000
244,0.06981317,0.69813165,-0.15707963,-9.83607006,0.43149261,3.24600124,0.02300000,0.00900000,0.06400001
245,0.05235988,0.69813165,-0.10471976,-9.94394397,0.40207266,2.85373516,0.02100000,0.01000000,0.06500000
246,0.03490658,0.68067841,-0.12217305,-10.11065673,0.62762565,3.04986810,0.02100000,0.00900000,0.06500000
247,0.06981317,0.80285148,-0.15707963,-10.14007663,0.66685223,2.72624874,0.02300000,0.01000000,0.06600000
248,0.06981317,0.76794486,-0.19198621,-10.13027000,0.70607876,2.43204927,0.02200000,0.00900000,0.06500000
249,0.06981317,0.90757122,-0.13962633,-10.46369647,0.66685223,3.07928824,0.02100000,0.01000000,0.06700000
250,0.01745329,1.04719758,-0.20943951,-10.22833633,0.55897903,1.53964414,0.02100000,0.00900000,0.06900000
251,-0.01745329,0.50614547,-0.15707963,-9.30651092,0.28439283,0.16671305,0.02100000,0.01100000,0.06700000
252,-0.08726646,0.24434609,-0.12217305,-10.06162357,0.50994582,2.05939650,0.02200000,0.01100000,0.06900000
253,-0.05235988,0.62831854,-0.15707963,-10.38524246,0.77472538,2.63798880,0.02100000,0.01100000,0.07000000
254,-0.08726646,0.47123889,-0.20943951,-9.56148433,0.50013918,1.04931151,0.02200000,0.01000000,0.07000000
255,-0.12217305,0.29670596,-0.05235988,-9.50264358,0.13729310,1.45138416,0.01900000,0.00900000,0.06900000
256,-0.03490658,0.24434609,-0.01745329,-9.88510322,0.89240512,1.47099757,0.01900000,0.00900000,0.07200000
257,-0.05235988,0.26179938,-0.10471976,-10.63040828,0.91201848,1.96133003,0.02200000,0.01000000,0.06900000
258,-0.01745329,0.45378561,-0.12217305,-10.78731536,0.81395187,2.43204927,0.02000000,0.01100000,0.07100000
259,0.05235988,0.61086521,-0.22689280,-10.63040828,1.08853816,1.98094348,0.02000000,0.00900000,0.07000000
260,0.05235988,0.40142574,-0.24434609,-9.88510322,0.64723892,1.48080406,0.01900000,0.01100000,0.07100000
261,0.01745329,0.31415927,-0.12217305,-9.86549091,0.39226600,1.56906404,0.02000000,0.01100000,0.07100000
262,-0.08726646,0.13962633,-0.20943951,-10.29698181,0.98066501,1.56906404,0.02000000,0.01000000,0.07200000
263,-0.06981317,0.22689280,-0.31415927,-10.33620929,1.24544465,2.35359597,0.01900000,0.01100000,0.07200000
264,-0.12217305,0.15707963,-0.40142574,-9.74781036,0.55897903,1.75539040,0.01900000,0.01100000,0.07200000
265,-0.26179938,0.00000000,-0.33161256,-9.87529659,0.01961330,1.35331773,0.01900000,0.01200000,0.07100000
266,-0.20943951,-0.13962633,-0.27925267,-9.40457725,0.69627218,2.18688297,0.01900000,0.01200000,0.07200000
267,-0.12217305,0.13962633,-0.31415927,-9.90471649,0.68646550,2.47127580,0.01900000,0.01100000,0.07000000
268,-0.10471976,0.17453291,-0.34906582,-9.60070991,0.35303938,1.54945077,0.01800000,0.01100000,0.07100000
269,-0.08726646,0.03490658,-0.27925267,-9.91452407,0.47071924,1.87307014,0.01900000,0.01100000,0.07400000
270,-0.06981317,0.19198621,-0.41887903,-10.37543582,0.94143848,2.54972887,0.01900000,0.01200000,0.07200000
271,-0.10471976,0.36651916,-0.50614547,-10.07142925,0.56878566,2.03978323,0.01800000,0.01200000,0.07300000
272,-0.08726646,0.26179938,-0.40142574,-9.40457725,0.15690641,1.15718472,0.01800000,0.01200000,0.07200000
273,-0.15707963,0.22689280,-0.45378561,-9.99297714,0.14709974,1.98094348,0.01900000,0.01100000,0.07300000
274,-0.08726646,0.34906582,-0.47123889,-9.82626342,0.31381282,1.37293100,0.01800000,0.01200000,0.07200000
275,-0.03490658,0.36651916,-0.47123889,-9.73800373,-0.13729310,1.36312437,0.01700000,0.01300000,0.07300000
276,0.10471976,0.54105205,-0.41887903,-9.58109760,-0.23535962,1.33370447,0.01800000,0.01300000,0.07300000
277,0.06981317,0.41887903,-0.48869218,-8.87501811,-0.66685223,0.38245937,0.01600000,0.01200000,0.07400000
278,0.01745329,0.13962633,-0.31415927,-9.20844459,-0.84337196,0.57859234,0.01700000,0.01400000,0.07300000
279,-0.01745329,0.06981317,-0.41887903,-9.63013076,0.00980665,1.36312437,0.01700000,0.01300000,0.07500000
280,0.00000000,0.34906582,-0.45378561,-9.76742362,-0.80414533,2.25552964,0.01700000,0.01400000,0.07400000
281,0.13962633,0.62831854,-0.26179938,-9.25747776,-1.22583127,1.59848403,0.01800000,0.01400000,0.07400000
282,0.20943951,0.61086521,-0.17453291,-9.12999153,-0.76491875,1.06892478,0.01700000,0.01500000,0.07500000
283,0.15707963,0.59341192,-0.24434609,-9.58109760,-0.56878566,1.25525128,0.01600000,0.01500000,0.07500000
284,0.06981317,0.54105205,-0.24434609,-9.75761699,-0.68646550,0.56878566,0.01700000,0.01500000,0.07500000
285,-0.03490658,0.34906582,-0.29670596,-9.79684352,-0.61781892,0.40207266,0.01500000,0.01500000,0.07500000
286,0.00000000,0.41887903,-0.29670596,-10.16949558,-0.84337196,0.72569208,0.01600000,0.01500000,0.07600000
287,0.17453291,0.59341192,-0.31415927,-9.87529659,-0.52955913,0.50013918,0.01500000,0.01500000,0.07600000
288,0.27925267,0.69813165,-0.36651916,-9.46341705,-1.12776482,0.66685223,0.01600000,0.01500000,0.07600000
289,0.34906582,0.80285148,-0.17453291,-9.27709102,-1.85345687,0.72569208,0.01600000,0.01600000,0.07600000
290,0.31415927,0.71558499,-0.17453291,-9.12018489,-1.33370447,0.02941995,0.01500000,0.01500000,0.07700000
291,0.19198621,0.45378561,-0.06981317,-9.30651092,-1.52003073,-0.03922660,0.01400000,0.01700000,0.07600000
292,0.08726646,0.41887903,-0.10471976,-9.83607006,-0.90221185,0.38245937,0.01500000,0.01600000,0.07700000
293,0.03490658,0.45378561,-0.17453291,-9.93413639,-1.06892478,0.10787315,0.01300000,0.01600000,0.07800001
294,-0.01745329,0.31415927,-0.08726646,-9.93413639,-1.32389783,0.12748645,0.01400000,0.01800000,0.07800001
295,0.01745329,0.59341192,0.01745329,-10.03220272,-1.68674383,0.51975245,0.01300000,0.01800000,0.07700000
296,0.15707963,0.52359876,0.01745329,-9.69877719,-0.48052587,-0.39226600,0.01400000,0.01700000,0.07800001
297,0.13962633,0.48869218,-0.08726646,-10.13027000,-0.83356533,0.16671305,0.01400000,0.01600000,0.07900000
298,0.22689280,0.55850534,0.06981317,-9.52225780,-1.31409120,-0.01961330,0.01300000,0.01600000,0.07900000
299,0.17453291,0.45378561,0.03490658,-9.59090328,-0.76491875,-0.19613300,0.01200000,0.01700000,0.08000000
300,0.17453291,0.59341192,-0.10471976,-9.90471649,-0.67665886,0.28439283,0.01300000,0.01700000,0.07900000
301,0.22689280,0.76794486,-0.03490658,-9.22805786,-0.92182512,0.09806651,0.01100000,0.01800000,0.07900000
302,0.19198621,0.61086521,-0.12217305,-8.88482475,-0.79433865,-0.84337196,0.01200000,0.01700000,0.08000000
303,0.13962633,0.48869218,-0.10471976,-8.90443801,-1.05911827,-0.22555296,0.01100000,0.01700000,0.08000000
304,0.12217305,0.52359876,-0.13962633,-8.87501811,-0.96105175,-0.32361946,0.01000000,0.01800000,0.08000000
305,0.10471976,0.40142574,-0.08726646,-8.84559822,-1.44157752,-0.21574630,0.01100000,0.01600000,0.08000000
306,0.13962633,0.61086521,-0.17453291,-9.36535072,-1.06892478,0.59820566,0.01200000,0.01900000,0.08000000
307,0.22689280,0.82030477,-0.13962633,-8.94366455,-1.81423034,0.18632633,0.01100000,0.01800000,0.08200000
308,0.26179938,0.66322512,0.06981317,-8.66907882,-2.02997660,-0.89240512,0.01100000,0.01800000,0.08200000
309,0.17453291,0.41887903,0.05235988,-9.56148433,-1.43177089,0.97085838,0.01100000,0.01800000,0.08200000
310,0.13962633,0.97738437,-0.01745329,-10.41466236,-1.22583127,1.73577713,0.01100000,0.01900000,0.08200000
311,0.17453291,1.04719758,0.00000000,-10.03220272,-0.86298522,-0.65704560,0.00900000,0.02000000,0.08100000
312,0.00000000,0.71558499,-0.19198621,-10.14007663,-0.45110592,-0.70607876,0.00900000,0.01900000,0.08300000
313,-0.12217305,0.80285148,-0.31415927,-10.49311637,-0.41187930,0.03922660,0.00800000,0.01800000,0.08300000
314,-0.15707963,0.90757122,-0.29670596,-10.28717613,-0.50994582,-1.00027835,0.00900000,0.01900000,0.08300000
315,-0.29670596,0.95993108,-0.47123889,-9.98316955,-0.80414533,-2.42224264,0.00700000,0.01800000,0.08400000
316,-0.29670596,0.75049157,-0.26179938,-9.32612419,-1.47099757,-3.38329434,0.00700000,0.01900000,0.08400000
317,-0.24434609,0.38397243,-0.41887903,-9.20844459,-0.23535962,-2.91257495,0.00700000,0.02000000,0.08500000
318,-0.15707963,0.82030477,-0.34906582,-10.43427562,-1.17679798,-0.63743219,0.00600000,0.02000000,0.08500000
319,-0.08726646,0.95993108,-0.50614547,-9.02211856,-0.64723892,-2.86354179,0.00700000,0.01900000,0.08600001
320,-0.12217305,0.54105205,-0.31415927,-9.13979816,-1.90249013,-2.86354179,0.00500000,0.01900000,0.08700000
321,-0.17453291,0.40142574,-0.27925267,-9.61051750,-1.24544465,-2.41243600,0.00500000,0.02000000,0.08700000
322,-0.13962633,0.54105205,-0.34906582,-10.20872306,-1.04931151,-1.71616373,0.00700000,0.02200000,0.08600001
323,-0.22689280,0.92502450,-0.41887903,-10.46369647,-1.58867731,-2.18688297,0.00400000,0.01900000,0.08700000
324,-0.24434609,0.66322512,-0.54105205,-8.91424465,-1.42196426,-4.13840627,0.00400000,0.01900000,0.08800000
325,-0.31415927,0.08726646,-0.33161256,-8.98289203,-1.85345687,-3.77556014,0.00300000,0.02100000,0.08500000
326,-0.36651916,0.54105205,-0.40142574,-10.11065673,-1.35331773,-1.00027835,0.00300000,0.02000000,0.08700000
327,-0.33161256,0.80285148,-0.48869218,-9.08095836,-1.63771057,-3.02044820,0.00100000,0.01900000,0.08900001
328,-0.38397243,0.40142574,-0.29670596,-9.22805786,-2.18688297,-3.87362689,0.00200000,0.02000000,0.08800000
329,-0.34906582,0.66322512,-0.31415927,-10.14988231,-1.24544465,-1.61809730,0.00300000,0.01800000,0.08800000
330,-0.43633232,0.99483766,-0.66322512,-10.01259040,-0.81395187,-2.31436944,0.00200000,0.02000000,0.08800000
331,-0.40142574,0.82030477,-0.66322512,-9.07115173,-1.47099757,-3.91285324,0.00200000,0.02000000,0.08900001
332,-0.31415927,0.61086521,-0.52359876,-9.10057067,-1.50041747,-3.70691370,-0.00200000,0.02000000,0.08800000
333,-0.34906582,0.87266464,-0.59341192,-9.77723026,-1.90249013,-2.75566864,-0.00100000,0.01900000,0.08800000
334,-0.47123889,1.02974426,-0.69813165,-8.82598495,-2.05939650,-3.97169322,-0.00100000,0.02000000,0.09000000
335,-0.47123889,0.48869218,-0.57595868,-8.32584571,-2.12804293,-5.50153064,-0.00100000,0.02200000,0.09000000
336,-0.43633232,0.55850534,-0.59341192,-9.48303031,-1.84365024,-2.17707633,-0.00200000,0.02000000,0.09100000
337,-0.34906582,1.25663709,-0.69813165,-9.21825122,-1.83384361,-3.34406757,-0.00200000,0.02100000,0.09100000
338,-0.40142574,0.99483766,-0.76794486,-7.54131412,-2.56934237,-5.85457038,-0.00300000,0.01900000,0.09100000
339,-0.40142574,0.54105205,-0.48869218,-7.51189374,-3.52058744,-4.89351844,-0.00400000,0.02100000,0.09100000
340,-0.33161256,0.66322512,-0.27925267,-8.34545898,-2.89296169,-4.18743944,-0.00400000,0.02000000,0.09100000
341,-0.31415927,0.66322512,-0.59341192,-8.84559822,-1.62790384,-4.08937311,-0.00400000,0.01900000,0.09100000
342,-0.24434609,0.94247779,-0.54105205,-9.11037826,-2.97141504,-3.49116754,-0.00500000,0.01900000,0.09200000
343,-0.31415927,1.06465089,-0.54105205,-8.24739265,-2.80470199,-4.48163890,-0.00400000,0.02000000,0.09100000
344,-0.33161256,0.92502450,-0.41887903,-8.35526561,-2.77528190,-4.82487201,-0.00500000,0.02000000,0.09200000
345,-0.40142574,0.92502450,-0.47123889,-8.49255943,-2.65760207,-5.24655818,-0.00700000,0.01900000,0.09200000
346,-0.40142574,0.68067841,-0.50614547,-8.04145336,-2.11823654,-5.46230411,-0.00800000,0.02000000,0.09200000
347,-0.38397243,0.76794486,-0.55850534,-8.59062576,-1.97113666,-4.32473278,-0.00800000,0.02000000,0.09400000
348,-0.40142574,1.09955739,-0.59341192,-8.33565330,-2.08881640,-4.23647308,-0.00900000,0.01900000,0.09300001
349,-0.38397243,1.30899691,-0.69813165,-7.78648042,-1.74558377,-5.33481788,-0.00900000,0.01800000,0.09400000
350,-0.40142574,1.11701071,-0.87266464,-6.85484838,-2.01036334,-6.40374231,-0.01100000,0.01900000,0.09400000
351,-0.45378561,0.78539819,-0.80285148,-6.42335557,-3.05967497,-6.79600858,-0.01100000,0.01800000,0.09400000
352,-0.43633232,0.59341192,-0.59341192,-6.16838312,-3.48136067,-6.04089641,-0.01200000,0.01800000,0.09200000
353,-0.43633232,0.94247779,-0.59341192,-6.54103565,-3.23619461,-5.09945774,-0.01200000,0.01900000,0.09400000
354,-0.31415927,0.87266464,-0.54105205,-6.04089641,-3.36368083,-6.60968255,-0.01300000,0.01700000,0.09500000
355,-0.33161256,0.78539819,-0.40142574,-6.37432241,-3.56962060,-6.28606271,-0.01300000,0.01900000,0.09400000
356,-0.31415927,0.82030477,-0.50614547,-6.26644945,-2.96160812,-6.87446165,-0.01400000,0.01800000,0.09500000
357,-0.36651916,0.52359876,-0.40142574,-6.27625608,-3.53039431,-6.73716831,-0.01500000,0.01800000,0.09300001
358,-0.33161256,0.68067841,-0.29670596,-6.77639532,-2.82431507,-5.23675107,-0.01600000,0.01700000,0.09400000
359,-0.33161256,0.95993108,-0.48869218,-6.54103565,-2.31436944,-5.92321634,-0.01700000,0.01700000,0.09400000
360,-0.38397243,0.71558499,-0.48869218,-6.17818975,-3.06948137,-7.25692129,-0.01600000,0.01800000,0.09500000
361,-0.45378561,0.66322512,-0.50614547,-5.61921072,-2.86354179,-6.45277595,-0.01800000,0.01600000,0.09500000
362,-0.41887903,0.76794486,-0.54105205,-4.76603221,-3.08909487,-6.41354894,-0.01800000,0.01700000,0.09600001
363,-0.31415927,0.54105205,-0.38397243,-4.39337921,-3.64807391,-7.86493349,-0.01900000,0.01700000,0.09500000
364,-0.24434609,0.27925267,-0.17453291,-5.49172401,-3.57942748,-6.80581521,-0.01900000,0.01600000,0.09500000
365,-0.15707963,0.94247779,-0.27925267,-6.33509635,-2.82431507,-5.11907148,-0.02000000,0.01700000,0.09400000
366,-0.27925267,1.09955739,-0.47123889,-4.70719194,-3.23619461,-7.71783351,-0.02100000,0.01700000,0.09500000
367,-0.36651916,0.43633232,-0.31415927,-3.86382007,-3.92266006,-8.50236511,-0.02100000,0.01600000,0.09400000
368,-0.36651916,0.22689280,-0.17453291,-4.80525875,-4.04033994,-6.89407491,-0.02000000,0.01700000,0.09500000
369,-0.29670596,0.43633232,-0.19198621,-5.27597761,-3.63826704,-6.64890861,-0.02100000,0.01400000,0.09500000
370,-0.20943951,0.45378561,-0.06981317,-5.08965158,-3.77556014,-6.70774888,-0.02100000,0.01600000,0.09600001
371,-0.19198621,0.50614547,0.01745329,-5.67805051,-3.38329434,-6.69794225,-0.02100000,0.01700000,0.09500000
372,-0.33161256,0.41887903,-0.17453291,-5.75650358,-2.73605561,-7.45305395,-0.02300000,0.01500000,0.09500000
373,-0.36651916,0.36651916,-0.06981317,-6.08992958,-3.47155427,-6.42335557,-0.02200000,0.01500000,0.09500000
374,-0.34906582,0.62831854,-0.10471976,-6.45277595,-2.72624874,-6.75678205,-0.02200000,0.01400000,0.09600001
375,-0.34906582,0.64577178,-0.20943951,-6.15857648,-2.08881640,-7.55112028,-0.02300000,0.01400000,0.09400000
376,-0.34906582,0.66322512,-0.26179938,-5.58979034,-2.49088931,-7.17846775,-0.02400000,0.01500000,0.09500000
377,-0.27925267,0.94247779,-0.20943951,-5.54075717,-2.73605561,-7.57073402,-0.02400000,0.01400000,0.09600001
378,-0.22689280,0.94247779,-0.19198621,-5.01119804,-2.13784956,-9.71839046,-0.02400000,0.01400000,0.09500000
379,-0.19198621,0.76794486,-0.13962633,-4.61893224,-2.25552964,-10.10084915,-0.02400000,0.01400000,0.09400000
380,-0.12217305,0.61086521,-0.05235988,-3.59904074,-2.98122138,-9.29670429,-0.02500000,0.01400000,0.09500000
381,-0.03490658,0.43633232,0.13962633,-3.85401363,-3.69710707,-7.06078863,-0.02600000,0.01300000,0.09400000
382,0.03490658,0.95993108,0.33161256,-5.36423778,-3.11851453,-5.29559135,-0.02600000,0.01500000,0.09600001
383,0.01745329,1.29154359,0.06981317,-4.69738531,-1.48080406,-7.15885496,-0.02700000,0.01400000,0.09400000
384,-0.13962633,0.99483766,-0.29670596,-3.51078081,-1.88287687,-8.95347118,-0.02800000,0.01400000,0.09600001
385,-0.20943951,0.69813165,-0.26179938,-2.05939650,-3.56962060,-8.80637168,-0.02800000,0.01400000,0.09300001
386,-0.05235988,0.26179938,0.03490658,-2.44185590,-3.78536701,-8.10029315,-0.02900000,0.01300000,0.09500000
387,0.01745329,0.76794486,-0.01745329,-4.11879301,-3.23619461,-5.93302345,-0.02900000,0.01300000,0.09600001
388,-0.10471976,1.20427715,-0.13962633,-3.29503440,-3.07928824,-7.01175451,-0.03000000,0.01400000,0.09400000
389,-0.20943951,0.68067841,-0.19198621,-2.95180177,-2.75566864,-9.12018489,-0.03000000,0.01400000,0.09400000
390,-0.13962633,0.82030477,-0.13962633,-4.20705270,-2.62818241,-7.23730754,-0.03000000,0.01400000,0.09500000
391,-0.12217305,1.15191733,-0.43633232,-3.66768717,-1.91229667,-8.03164672,-0.03100000,0.01400000,0.09300001
392,-0.05235988,1.04719758,-0.34906582,-3.02044820,-3.00083494,-8.94366455,-0.03200000,0.01400000,0.09200000
393,0.00000000,1.09955739,-0.27925267,-2.50069570,-2.49088931,-8.57101249,-0.03200000,0.01300000,0.09300001
394,0.03490658,1.11701071,-0.40142574,-2.10842990,-2.38301610,-9.37515735,-0.03400000,0.01500000,0.09300001
395,0.10471976,0.83775806,-0.41887903,-2.05939650,-2.70663547,-9.10057067,-0.03300000,0.01400000,0.09400000
396,0.08726646,0.78539819,-0.24434609,-2.42224264,-3.54020071,-7.61976718,-0.03600000,0.01300000,0.09200000
397,0.03490658,0.82030477,-0.20943951,-2.82431507,-2.67721557,-6.56064939,-0.03500000,0.01300000,0.09300001
398,0.03490658,1.34390354,-0.43633232,-2.84392852,-1.76519718,-5.71727705,-0.03500000,0.01400000,0.09400000
399,-0.03490658,1.50098314,-0.76794486,-1.39254438,-2.14765644,-7.79628705,-0.03700000,0.01300000,0.09200000
400,0.03490658,1.06465089,-0.57595868,-0.79433865,-4.05014657,-9.08095836,-0.03700000,0.01400000,0.09200000
401,-0.20943951,0.78539819,-0.47123889,-2.02997660,-4.86409854,-6.82542848,-0.03700000,0.01300000,0.09100000
402,-0.26179938,1.41371669,-0.43633232,-3.20677447,-3.84420680,-6.07031679,-0.03700000,0.01200000,0.09200000
403,-0.36651916,1.65806283,-0.75049157,-2.04958987,-3.04986810,-7.45305395,-0.04000000,0.01400000,0.09100000
404,-0.33161256,1.72787594,-0.66322512,-0.50994582,-4.05014657,-9.57129096,-0.04000000,0.01200000,0.09100000
405,-0.36651916,0.80285148,-0.33161256,-0.09806651,-3.91285324,-11.48358726,-0.04200000,0.01200000,0.09100000
406,-0.50614547,0.29670596,-0.33161256,-2.02997660,-2.73605561,-7.49228048,-0.04100000,0.01100000,0.09100000
407,-0.43633232,1.27409029,-0.47123889,-3.22638797,-1.32389783,-6.22722291,-0.04300000,0.01200000,0.09100000
408,-0.52359876,1.20427715,-0.73303833,-0.97085838,-0.90221185,-10.84615421,-0.04300000,0.01100000,0.09100000
409,-0.61086521,0.43633232,-0.73303833,0.01961330,-1.52003073,-9.64974403,-0.04300000,0.01000000,0.09100000
410,-0.50614547,0.62831854,-0.78539819,-0.15690641,-1.44157752,-7.77667331,-0.04400000,0.00900000,0.09100000
411,-0.36651916,0.83775806,-0.64577178,0.29419948,-2.73605561,-8.09048652,-0.04300000,0.00800000,0.09100000
412,-0.31415927,0.83775806,-0.45378561,0.62762565,-2.19668960,-7.99241971,-0.04500000,0.01000000,0.08900001
413,-0.31415927,0.76794486,-0.80285148,0.66685223,-1.07873153,-8.45333194,-0.04500000,0.00800000,0.08900001
414,-0.41887903,0.43633232,-0.76794486,1.20621800,-3.17735457,-8.18855285,-0.04500000,0.00700000,0.09000000
415,-0.41887903,0.54105205,-0.43633232,0.23535962,-2.96160812,-7.63938045,-0.04600000,0.00700000,0.09000000
416,-0.52359876,0.69813165,-0.68067841,0.02941995,-1.67693719,-8.04145336,-0.04600000,0.00800000,0.08900001
417,-0.50614547,0.64577178,-0.71558499,1.09834480,-2.11823654,-8.28662014,-0.04600000,0.00700000,0.08700000
418,-0.54105205,0.55850534,-0.61086521,1.02969825,-2.31436944,-8.18855285,-0.04600000,0.00500000,0.08900001
419,-0.54105205,0.57595868,-0.62831854,0.51975245,-1.54945077,-8.23758602,-0.04700000,0.00600000,0.08900001
420,-0.59341192,0.82030477,-0.85521135,1.20621800,-1.69655036,-8.42391300,-0.04800000,0.00500000,0.08900001
421,-0.54105205,0.85521135,-0.68067841,1.83384361,-2.57914900,-8.80637168,-0.04700000,0.00500000,0.08800000
422,-0.55850534,0.71558499,-0.52359876,2.45166254,-2.09862303,-8.81617832,-0.04800000,0.00200000,0.08900001
423,-0.71558499,0.50614547,-0.71558499,2.37320923,-1.03950488,-8.25719928,-0.04700000,0.00400000,0.08800000
424,-0.69813165,0.66322512,-0.80285148,2.39282274,-1.51022410,-8.07087326,-0.04800000,0.00500000,0.08900001
425,-0.75049157,0.68067841,-0.73303833,2.91257495,-2.47127580,-8.91424465,-0.04900000,0.00400000,0.08700000
426,-0.71558499,0.64577178,-0.55850534,2.92238187,-2.22610950,-9.70858383,-0.04800000,0.00100000,0.08800000
427,-0.66322512,0.43633232,-0.36651916,2.66740894,-1.79461693,-8.42391300,-0.04900000,0.00300000,0.08600001
428,-0.68067841,0.90757122,-0.36651916,1.87307014,-0.85317859,-7.13924121,-0.04900000,0.00200000,0.08600001
429,-0.83775806,0.95993108,-0.62831854,3.33426117,-0.18632633,-9.95374965,-0.05100000,0.00100000,0.08800000
430,-0.90757122,0.52359876,-0.59341192,3.66768717,-1.13757133,-10.47350215,-0.05000000,0.00000000,0.08700000
431,-0.90757122,0.45378561,-0.38397243,2.42224264,-1.41215753,-9.10057067,-0.05000000,-0.00300000,0.08700000
432,-0.80285148,0.92502450,-0.29670596,1.79461693,-0.05883990,-8.88482475,-0.05100000,-0.00100000,0.08600001
433,-0.75049157,1.23918378,-0.38397243,3.15774130,0.95124511,-9.64974403,-0.05100000,-0.00100000,0.08700000
434,-0.94247779,1.22173047,-0.55850534,4.73661231,0.48052587,-11.71894741,-0.05400000,-0.00200000,0.08600001
435,-0.82030477,0.82030477,-0.33161256,5.57998418,0.22555296,-12.41521930,-0.05200000,-0.00400000,0.08500000
436,-0.66322512,0.50614547,-0.36651916,5.84476375,0.65704560,-12.95458507,-0.05400000,-0.00300000,0.08400000
437,-0.66322512,-0.03490658,-0.29670596,6.06050968,-0.53936576,-11.36590766,-0.05300000,-0.00400000,0.08600001
438,-0.43633232,0.05235988,0.08726646,4.89351844,0.20593965,-8.42391300,-0.05300000,-0.00300000,0.08400000
439,-0.22689280,0.64577178,-0.08726646,5.01119804,2.29475617,-9.06134510,-0.05400000,-0.00300000,0.08300000
440,-0.17453291,0.78539819,-0.48869218,5.86437654,1.57887067,-11.28745460,-0.05400000,-0.00400000,0.08400000
441,-0.08726646,0.52359876,-0.43633232,6.02128362,-0.41187930,-12.81729221,-0.05500000,-0.00500000,0.08400000
442,-0.12217305,-0.15707963,0.03490658,5.32501077,-1.30428445,-12.60154533,-0.05400000,-0.00400000,0.08300000
443,-0.13962633,0.17453291,-0.05235988,3.82459335,0.60801229,-9.19863796,-0.05600000,-0.00400000,0.08400000
444,-0.17453291,0.41887903,-0.27925267,4.09917974,0.28439283,-9.87529659,-0.05500000,-0.00500000,0.08500000
445,-0.12217305,0.40142574,0.01745329,3.58923387,-0.29419948,-10.49311637,-0.05600000,-0.00300000,0.08400000
446,-0.01745329,0.55850534,-0.03490658,2.94199514,1.41215753,-10.61079597,-0.05500000,-0.00500000,0.08400000
447,-0.01745329,0.68067841,-0.40142574,2.95180177,1.36312437,-11.72875308,-0.05700000,-0.00600000,0.08300000
448,-0.03490658,0.38397243,-0.31415927,3.79517364,0.04903325,-12.13082599,-0.05700000,-0.00500000,0.08300000
449,-0.20943951,0.15707963,-0.20943951,3.93246669,-0.50013918,-11.27764701,-0.05700000,-0.00500000,0.08300000
450,-0.15707963,0.38397243,-0.05235988,4.15801954,0.21574630,-9.73800373,-0.05700000,-0.00300000,0.08300000
451,-0.05235988,0.69813165,-0.13962633,5.22694444,1.16699135,-10.66963577,-0.05700000,-0.00500000,0.08300000
452,0.06981317,0.40142574,-0.15707963,5.87418317,0.89240512,-12.64077281,-0.06000000,-0.00500000,0.08200000
453,0.12217305,-0.17453291,0.10471976,4.28550624,0.49033250,-11.10112762,-0.05900000,-0.00500000,0.08300000
454,0.03490658,0.31415927,-0.17453291,2.69682884,1.53964414,-9.81645679,-0.05600000,-0.00400000,0.08200000
455,-0.01745329,0.15707963,-0.34906582,4.55028533,1.07873153,-11.45416736,-0.05800000,-0.00500000,0.08200000
456,0.06981317,-0.12217305,-0.01745329,4.43260574,-0.24516625,-9.45361042,-0.05800000,-0.00500000,0.08300000
457,0.20943951,0.43633232,0.03490658,3.31464767,1.01008498,-9.80665016,-0.05900000,-0.00400000,0.08200000
458,0.19198621,0.31415927,-0.27925267,4.15801954,0.87279186,-12.68980598,-0.05800000,-0.00500000,0.08300000
459,0.26179938,-0.22689280,-0.03490658,5.08965158,-0.48052587,-13.00361824,-0.05800000,-0.00400000,0.08100000
460,0.33161256,-0.54105205,0.10471976,5.31520414,-0.01961330,-10.92460823,-0.05900000,-0.00700000,0.08300000
461,0.40142574,0.00000000,0.10471976,5.79573059,-0.67665886,-11.04228878,-0.05800000,-0.00400000,0.08300000
462,0.27925267,-0.29670596,0.36651916,6.91368818,-1.43177089,-13.66066360,-0.05800000,-0.00500000,0.08200000
463,0.33161256,-1.27409029,0.69813165,4.97197198,-0.59820566,-13.61163043,-0.05800000,-0.00500000,0.08100000
464,0.36651916,-1.37881004,0.66322512,3.85401363,0.41187930,-11.09132194,-0.05700000,-0.00500000,0.08400000
465,0.48869218,-1.08210409,0.59341192,3.95207996,1.30428445,-13.19975090,-0.05900000,-0.00200000,0.08200000
466,0.64577178,-1.53588972,0.41887903,5.70747041,1.03950488,-16.29865264,-0.05500000,-0.00200000,0.08700000
467,0.76794486,-2.35619449,0.34906582,9.12999153,-1.71616373,-18.24036979,-0.05700000,-0.00200000,0.08500000
468,0.80285148,-3.78736448,1.20427715,10.78731536,-5.26617097,-18.08346366,-0.05500000,-0.00100000,0.08700000
469,0.89011783,-4.76474905,2.04203510,8.37487888,-3.65788054,-13.59201717,-0.05300000,-0.00100000,0.09100000
470,0.94247779,-4.34587001,1.95476875,4.47183227,-0.38245937,-9.02211856,-0.04900000,0.00000000,0.09000000
471,0.90757122,-3.63028478,1.11701071,2.98122138,0.95124511,-8.88482475,-0.04800000,0.00200000,0.09200000
472,0.75049157,-3.87463092,0.94247779,4.05995321,-0.78453202,-12.32695865,-0.04400000,0.00300000,0.09200000
473,0.66322512,-5.14872121,0.89011783,5.15829801,-1.02969825,-14.20002937,-0.04200000,0.00400000,0.09500000
474,0.82030477,-5.91666603,1.02974426,4.11879301,-2.55953574,-10.17930316,-0.03600000,0.00300000,0.09700000
475,1.15191733,-5.49778699,1.32645022,1.49061069,-2.42224264,-6.06050968,-0.03300000,0.00600000,0.09500000
476,1.50098314,-4.67748212,1.39626336,-0.33342611,-2.11823654,-5.79573059,-0.03000000,0.00800000,0.09800000
477,1.64060950,-4.78220224,1.50098314,-0.17651968,-1.90249013,-8.67888545,-0.02800000,0.00800000,0.09800000
478,1.32645022,-6.10865211,1.65806283,0.17651968,-2.55953574,-9.44380378,-0.02300000,0.00800000,0.09900000
479,0.82030477,-7.03367662,1.95476875,-0.18632633,-3.63826704,-6.44296932,-0.02000000,0.01000000,0.09900000
480,0.29670596,-7.74926185,2.21656823,0.06864655,-3.75594687,-5.56037044,-0.01700000,0.01100000,0.09800000
481,-0.33161256,-8.39503383,2.30383467,0.81395187,-4.62873888,-5.02100515,-0.00800000,0.01000000,0.09800000
482,-0.52359876,-8.81391239,2.68780708,1.04931151,-4.23647308,-4.09917974,-0.00500000,0.00900000,0.09600001
483,0.19198621,-9.14552497,2.87979316,0.96105175,0.36284604,-6.24683618,0.00300000,0.00700000,0.09100000
484,0.90757122,-9.54695129,2.51327419,-1.22583127,2.36340260,-3.24600124,0.00500000,0.00600000,0.09000000
485,1.25663709,-9.19788551,1.97222213,-3.49116754,4.58951234,2.22610950,0.01200000,0.00600000,0.08400000
486,1.83259572,-7.81907510,0.94247779,-5.44269084,6.77639532,4.94255161,0.01700000,0.00700000,0.08000000
487,2.32128787,-6.12610578,-0.34906582,-5.93302345,4.69738531,5.95263671,0.01900000,0.00600000,0.07400000
488,2.65290045,-5.02654838,-0.41887903,-5.00139141,2.34378933,1.55925726,0.02000000,0.00800000,0.07200000
489,2.80998020,-5.37561416,-0.26179938,-3.79517364,1.29447782,0.60801229,0.02200000,0.00700000,0.06700000
490,2.61799383,-5.89921283,0.10471976,-2.87334871,-0.09806651,0.76491875,0.02300000,0.00900000,0.06300001
491,2.07694172,-6.21337223,0.50614547,-2.39282274,-0.20593965,3.40290760,0.02600000,0.00900000,0.05700000
492,1.69296932,-6.26573181,0.75049157,-0.93163175,1.32389783,3.18716120,0.02600000,0.00900000,0.05500000
493,1.39626336,-7.10348987,0.43633232,0.05883990,2.14765644,3.91285324,0.02600000,0.00900000,0.04700000
494,0.95993108,-7.60963535,0.54105205,0.20593965,1.24544465,7.15885496,0.02600000,0.01000000,0.04400000
495,0.45378561,-7.47000932,0.68067841,1.06892478,1.32389783,12.40541267,0.02500000,0.00800000,0.03500000
496,1.16937053,-6.40535831,0.82030477,0.53936576,5.12887811,12.33676624,0.02400000,0.00700000,0.03200000
497,0.89011783,-5.84685277,-0.15707963,-0.31381282,4.01092004,14.10196304,0.02100000,0.00500000,0.02500000
498,0.90757122,-5.70722675,0.48869218,-0.96105175,0.68646550,16.23000526,0.01900000,0.00600000,0.02200000
499,0.05235988,-4.41568279,0.52359876,-2.14765644,2.77528190,20.49589729,0.01800000,0.00600000,0.02000000