acc_x,acc_y,acc_z,time
-0.36284604,0.45110592,11.12074089,0
-0.66685223,0.50994582,11.70914077,6
-0.76491875,0.46091256,11.99353408,6
-0.71588544,0.31381282,12.00333976,5
-0.50013918,0.26477956,11.63068675,5
-0.17651968,0.19613300,11.34629344,5
0.32361946,0.25497291,10.61079597,6
0.54917240,0.35303938,9.87529659,5
1.05911827,0.43149261,9.27709102,5
1.39254438,0.45110592,8.96327781,6
1.50041747,0.38245937,8.87501811,5
1.45138416,0.28439283,8.73772525,6
1.48080406,0.33342611,8.85540485,5
1.32389783,0.42168598,9.29670429,5
1.06892478,0.53936576,9.29670429,5
0.85317859,0.55897903,9.75761699,5
0.70607876,0.41187930,10.19891548,6
0.66685223,0.37265267,10.53234195,6
0.68646550,0.25497291,10.64021587,5
0.76491875,0.14709974,10.62060165,5
0.98066501,-0.03922660,10.26756286,6
1.16699135,-0.20593965,9.73800373,5
1.26505780,-0.28439283,9.31631755,5
1.42196426,-0.29419948,8.88482475,5
1.51022410,-0.22555296,8.72791862,5
1.50041747,-0.00980665,8.67888545,7
1.43177089,0.12748645,8.67888545,5
1.35331773,0.15690641,8.88482475,5
1.08853816,0.09806651,9.01231193,5
0.81395187,-0.08825984,9.46341705,5
0.41187930,-0.21574630,9.69877719,6
0.32361946,-0.20593965,10.06162357,5
0.22555296,-0.14709974,10.28717613,5
0.14709974,0.05883990,10.31659603,6
0.38245937,0.25497291,10.48330879,6
0.56878566,0.32361946,10.11065673,5
0.77472538,0.32361946,9.74781036,5
0.94143848,0.18632633,9.47322463,5
1.07873153,0.11767981,9.22805786,6
1.24544465,0.03922660,9.02211856,5
1.21602463,0.05883990,9.10057067,5
1.13757133,0.08825984,9.24767112,6
0.96105175,0.13729310,9.61051750,5
0.69627218,0.25497291,9.76742362,6
0.44129929,0.37265267,10.30678939,5
0.38245937,0.41187930,10.90499496,5
0.37265267,0.47071924,11.31687450,5
0.49033250,0.24516625,11.40513420,5
0.64723892,-0.04903325,11.26784133,7
0.89240512,-0.31381282,10.86576843,5
1.12776482,-0.40207266,10.14007663,5
1.48080406,-0.38245937,9.39477062,5
1.85345687,-0.10787315,8.93385887,6
2.22610950,0.25497291,8.26700592,5
2.44185590,0.53936576,7.73744678,5
2.46146917,0.71588544,7.52170085,5
2.43204927,0.64723892,7.46286058,5
2.30456280,0.63743219,7.66880035,7
2.07900977,0.69627218,8.35526561,5
1.83384361,0.65704560,9.00250434,5
1.34351098,0.53936576,10.21852970,5
0.81395187,0.14709974,10.98344802,5
0.01961330,-0.50013918,11.52281379,6
-0.43149261,-0.64723892,11.70914077,5
-0.45110592,-0.11767981,11.78759384,5
-0.48052587,0.24516625,11.61107349,6
-0.56878566,0.66685223,11.27764701,6
-0.46091256,0.43149261,10.87557506,5
-0.00980665,-0.11767981,10.62060165,5
0.19613300,-0.33342611,9.87529659,5
0.64723892,-0.33342611,9.32612419,6
1.04931151,-0.31381282,9.12018489,5
1.18660461,-0.41187930,8.79656505,6
1.16699135,-0.77472538,8.68869209,5
0.96105175,-1.11795806,8.89463138,5
0.81395187,-1.14737808,9.48303031,6
0.49033250,-0.81395187,9.61051750,5
0.08825984,-0.47071924,9.85568332,5
-0.07845321,-0.22555296,10.47350215,5
-0.62762565,-0.20593965,10.65982913,5
-1.15718472,-0.32361946,11.28745460,7
-1.66713056,-0.73549880,11.79739952,5
-2.40262937,-1.21602463,12.61135196,5
-2.66740894,-1.43177089,13.40569019,6
-2.90276832,-1.18660461,13.20955753,5
-2.93218822,-0.91201848,12.51328563,5
-2.59876203,-0.24516625,12.10140609,5
-2.01036334,0.26477956,10.78731536,6
-1.23563790,0.44129929,9.62032413,6
-0.92182512,0.36284604,8.44352626,5
-0.35303938,0.25497291,7.34518098,5
0.11767981,0.13729310,6.98233509,5
0.58839898,0.00000000,6.76658868,6
0.80414533,-0.27458620,7.24711465,5
1.11795806,-0.46091256,7.89435338,5
1.37293100,-0.89240512,8.07087326,5
1.50041747,-1.40235099,8.38468647,6
1.43177089,-1.65732383,8.84559822,6
1.34351098,-1.62790384,9.75761699,5
1.26505780,-1.45138416,11.14035511,5
1.23563790,-1.25525128,12.07198619,5
0.38245937,-1.26505780,12.94477844,5
-0.20593965,-1.23563790,13.88621711,6
-0.50994582,-1.25525128,13.43511104,5
-2.57914900,-1.24544465,15.01398181,6
-2.77528190,-0.38245937,15.55334663,5
-3.33426117,1.20621800,15.90638637,6
-2.91257495,2.78508877,14.47461509,5
-2.64779567,3.32445430,12.87613105,5
-1.27486443,3.06948137,9.93413639,6
0.29419948,1.74558377,8.59062576,5
1.89268350,0.34323275,5.98205661,5
3.54020071,-0.36284604,4.07956647,6
4.25608587,-0.40207266,2.64779567,5
5.06023120,-0.38245937,1.85345687,6
5.41327095,-0.69627218,1.47099757,5
5.22694444,-1.33370447,1.39254438,5
4.86409854,-2.04958987,2.20649623,5
3.63826704,-2.26533627,4.34434604,5
2.29475617,-2.22610950,5.72708368,6
0.77472538,-1.67693719,8.59062576,6
-1.25525128,-1.13757133,11.15996837,5
-1.96133003,-1.06892478,14.06273651,5
-3.56962060,-1.21602463,15.22972774,6
-4.56989908,-1.75539040,15.83773994,5
-5.19752407,-2.11823654,15.89658069,5
-5.14849090,-2.04958987,15.37682723,5
-5.02100515,-1.22583127,13.99409008,6
-3.79517364,-0.59820566,12.22889232,6
-2.55953574,0.60801229,10.24794864,5
-1.34351098,1.38273775,9.30651092,5
0.33342611,1.53964414,8.20816612,6
0.71588544,1.16699135,7.25692129,5
1.62790384,0.86298522,6.76658868,5
1.98094348,-0.16671305,7.03136825,5
1.58867731,-1.37293100,7.34518098,5
1.22583127,-2.35359597,8.51217174,7
0.85317859,-2.82431507,9.32612419,5
0.50994582,-2.84392852,10.48330879,5
-0.25497291,-2.39282274,10.54214954,5
-0.56878566,-1.65732383,10.73828220,6
-0.78453202,-1.10815143,10.78731536,5
-0.45110592,-0.70607876,10.62060165,5
-0.37265267,-0.58839898,10.59118270,5
-0.00980665,-0.41187930,10.35582256,7
0.25497291,-0.42168598,10.44408321,5
0.49033250,-0.67665886,10.65002155,5
0.78453202,-1.17679798,10.64021587,5
0.99047174,-1.47099757,10.76770210,6
1.04931151,-1.92210340,10.54214954,5
1.02969825,-2.29475617,10.46369647,5
1.13757133,-2.41243600,9.99297714,5
1.23563790,-2.27514266,9.39477062,7
1.03950488,-2.10842990,9.21825122,5
1.06892478,-1.73577713,9.07115173,5
0.84337196,-1.40235099,9.11037826,5
0.79433865,-1.23563790,9.21825122,5
0.44129929,-1.35331773,9.40457725,6
0.05883990,-1.39254438,9.76742362,5
-0.18632633,-1.26505780,9.90471649,5
-0.33342611,-1.11795806,10.05181598,6
-0.20593965,-1.10815143,10.02239608,5
-0.10787315,-1.19641137,9.38496398,6
0.26477956,-1.43177089,9.30651092,5
0.59820566,-1.64751720,8.85540485,5
1.08853816,-1.69655036,9.20844459,5
1.02969825,-1.83384361,9.20844459,6
1.06892478,-1.87307014,9.49283695,5
0.98066501,-1.89268350,9.72819709,6
0.50013918,-1.89268350,10.27736949,5
-0.08825984,-1.76519718,10.75789546,5
-0.31381282,-1.56906404,11.11093521,6
-0.63743219,-1.55925726,10.93441486,5
-0.66685223,-1.45138416,10.72847557,5
-0.33342611,-1.38273775,9.95374965,5
0.15690641,-1.40235099,8.98289203,6
0.42168598,-1.45138416,7.94338655,6
0.87279186,-1.52983751,7.32556724,5
1.25525128,-1.56906404,7.20788812,5
1.42196426,-1.74558377,7.30595445,6
1.45138416,-1.87307014,7.53150749,5
1.38273775,-1.96133003,7.88454675,5
1.17679798,-1.93191003,8.17874622,5
0.94143848,-1.74558377,8.37487888,5
0.78453202,-1.69655036,8.92405223,7
0.66685223,-1.76519718,9.25747776,5
0.50994582,-1.89268350,9.52225780,5
0.27458620,-2.15746307,9.46341705,5
0.43149261,-2.13784956,9.54187011,5
0.57859234,-1.76519718,9.55167675,6
0.50994582,-1.43177089,9.21825122,5
0.54917240,-1.34351098,8.94366455,5
0.68646550,-1.31409120,8.75733852,6
0.84337196,-1.52983751,8.77695178,5
0.91201848,-1.79461693,8.55139827,6
1.06892478,-1.95152339,8.57101249,5
1.03950488,-2.00055670,8.67888545,5
0.96105175,-1.98094348,8.66907882,5
0.87279186,-1.96133003,9.17902469,5
0.55897903,-1.96133003,9.30651092,6
0.40207266,-1.90249013,9.27709102,6
0.09806651,-1.91229667,9.56148433,5
-0.13729310,-1.82403697,9.75761699,5
-0.23535962,-1.77500367,10.15968990,6
-0.27458620,-1.79461693,10.20872306,5
-0.29419948,-1.85345687,9.95374965,5
-0.12748645,-2.01036334,9.57129096,5
0.26477956,-2.02016997,8.76714515,5
0.51975245,-1.73577713,7.96299982,7
0.88259859,-1.27486443,7.06078863,5
1.26505780,-1.16699135,6.71755552,5
1.38273775,-1.14737808,6.62929534,5
1.34351098,-1.36312437,6.76658868,5
1.14737808,-1.65732383,7.43344116,5
0.77472538,-1.78481030,8.32584571,5
0.24516625,-1.96133003,8.94366455,5
-0.26477956,-1.98094348,10.07142925,6
-0.60801229,-1.83384361,10.90499496,6
-0.77472538,-1.74558377,11.44436168,5
-0.86298522,-1.73577713,11.54242801,5
-0.63743219,-1.70635709,11.40513420,5
-0.23535962,-1.78481030,10.78731536,6
0.29419948,-1.91229667,9.84587669,5
0.58839898,-1.92210340,8.92405223,5
1.01989161,-1.91229667,8.11009979,6
1.30428445,-1.83384361,7.91396665,6
1.45138416,-1.70635709,7.65899372,5
1.30428445,-1.56906404,7.78648042,5
1.13757133,-1.50041747,8.42391300,5
0.71588544,-1.46119093,9.25747776,5
0.19613300,-1.50041747,9.63993644,6
-0.24516625,-1.61809730,10.28717613,5
-0.56878566,-1.68674383,10.63040828,6
-0.65704560,-1.60829067,10.72847557,5
-0.64723892,-1.50041747,10.59118270,6
-0.60801229,-1.43177089,10.41466236,5
-0.38245937,-1.28467119,9.99297714,5
-0.26477956,-1.45138416,9.50264358,5
-0.11767981,-1.77500367,9.12999153,5
-0.07845321,-1.94171667,8.88482475,6
-0.21574630,-2.08881640,8.84559822,6
-0.43149261,-1.96133003,8.74753189,5
-0.58839898,-1.44157752,8.75733852,5
-0.68646550,-1.04931151,8.88482475,6
-0.55897903,-0.35303938,9.30651092,5
-0.46091256,-0.12748645,9.52225780,5
-0.19613300,-0.51975245,9.56148433,5
-0.03922660,-1.36312437,9.34573745,5
0.13729310,-1.74558377,9.06134510,7
0.36284604,-2.25552964,8.93385887,5
0.42168598,-2.19668960,8.77695178,5
0.36284604,-1.93191003,8.85540485,5
0.42168598,-1.62790384,9.28689765,5
0.01961330,-1.57887067,9.63993644,6
-0.30400614,-1.48080406,9.77723026,5
-0.56878566,-1.42196426,10.10084915,5
-0.64723892,-1.27486443,10.32640266,6
-0.60801229,-1.32389783,10.38524246,6
-0.47071924,-1.34351098,10.20872306,5
-0.19613300,-1.53964414,10.00278282,5
0.10787315,-1.84365024,9.35554409,5
0.23535962,-1.90249013,8.49255943,5
0.43149261,-1.83384361,7.83551359,6
0.55897903,-1.38273775,7.53150749,5
0.68646550,-0.91201848,7.25692129,6
0.71588544,-0.58839898,7.48247432,5
0.61781892,-0.79433865,8.12971305,6
0.26477956,-1.01989161,9.32612419,5
-0.24516625,-1.73577713,9.91452407,5
-0.75511207,-2.41243600,10.90499496,5
-1.10815143,-2.69682884,11.65030002,5
-1.28467119,-2.63798880,11.93469333,6
-1.26505780,-2.48108243,11.46397399,6
-1.03950488,-2.05939650,11.10112762,5
-0.47071924,-1.70635709,10.04201030,5
0.10787315,-1.47099757,8.76714515,6
0.40207266,-1.21602463,7.61976718,5
1.00027835,-1.29447782,7.32556724,5
1.13757133,-1.41215753,7.11962795,5
0.91201848,-1.85345687,7.34518098,6
0.78453202,-2.38301610,8.34545898,6
0.16671305,-2.58895564,9.44380378,5
-0.59820566,-2.81450862,10.35582256,5
-1.11795806,-2.67721557,10.71866893,5
-1.38273775,-2.16726970,10.91480159,6
-1.36312437,-1.70635709,10.92460823,5
-1.32389783,-1.46119093,10.52253532,5
-1.01008498,-1.23563790,10.22833633,5
-0.67665886,-1.24544465,9.88510322,7
-0.36284604,-1.31409120,9.59090328,5
-0.18632633,-1.35331773,9.28689765,5
0.00980665,-1.41215753,9.04173183,5
0.13729310,-1.49061069,8.95347118,6
0.16671305,-1.53964414,8.97308540,5
0.01961330,-1.66713056,9.13979816,5
-0.21574630,-1.44157752,9.40457725,5
-0.50013918,-1.32389783,9.54187011,6
-0.77472538,-0.94143848,9.79684352,6
-1.00027835,-0.61781892,10.05181598,5
-0.93163175,-0.51975245,10.20872306,5
-0.92182512,-0.59820566,10.23814296,5
-0.88259859,-0.65704560,10.11065673,6
-0.71588544,-0.87279186,10.06162357,5
-0.53936576,-0.94143848,10.14988231,5
-0.50994582,-1.03950488,10.22833633,6
-0.18632633,-1.04931151,10.26756286,6
-0.47071924,-1.21602463,10.74808788,5
-0.32361946,-1.35331773,10.53234195,5
-0.36284604,-1.50041747,10.82654190,5
-0.58839898,-1.48080406,11.01286792,6
-0.72569208,-1.41215753,11.27764701,5
-0.98066501,-1.30428445,11.37571430,5
-1.00027835,-1.16699135,11.27764701,6
-0.99047174,-1.15718472,11.21880817,6
-0.75511207,-1.09834480,10.85596179,5
-0.58839898,-0.85317859,10.55195522,5
-0.42168598,-0.72569208,10.00278282,5
-0.23535962,-0.60801229,9.76742362,6
-0.35303938,-0.61781892,9.83607006,5
-0.43149261,-1.29447782,11.33648777,5
-0.90221185,-1.42196426,11.49339485,6
-1.15718472,-1.62790384,12.46425247,6
-1.26505780,-1.42196426,12.03275966,5
-0.81395187,-1.10815143,13.19975090,5
-0.91201848,-1.04931151,12.99381160,5
-0.96105175,-1.43177089,12.88593864,6
-0.81395187,-1.86326351,11.13054752,5
0.22555296,-3.31464767,14.05292892,5
-0.95124511,-3.36368083,11.67971992,6
-0.82375860,-2.81450862,11.06190204,6
-0.41187930,-1.69655036,11.00306129,5
-0.27458620,-1.17679798,9.99297714,5
0.35303938,-0.42168598,9.43399715,5
0.59820566,-0.26477956,8.27681255,6
0.59820566,-0.30400614,7.36479425,5
0.53936576,-1.77500367,4.15801954,6
0.99047174,-2.14765644,7.35498762,5
-2.41243600,-3.81478691,8.16893959,5
-1.45138416,-5.71727705,9.42419147,6
-3.02044820,-4.54047918,11.43455410,5
-4.38357257,-1.41215753,13.16052436,5
-4.54047918,0.40207266,14.11176967,5
-4.27569913,3.49116754,13.00361824,6
-5.01119804,3.30484127,10.14007663,6
-3.34406757,0.35303938,10.55195522,5
-2.97141504,-2.31436944,8.49255943,5
-1.91229667,-2.67721557,8.16893959,6
-2.44185590,-2.37320923,9.17902469,5
-2.33398270,-1.03950488,8.74753189,5
-3.03025484,0.29419948,7.71783351,5
-2.92238187,0.96105175,7.47266769,6
-3.20677447,1.01008498,8.25719928,6
-3.42252087,0.59820566,8.17874622,5
-3.69710707,-0.28439283,9.10057067,5
-3.91285324,-1.33370447,10.31659603,5
-4.48163890,-1.78481030,10.63040828,6
-4.96216487,-2.02016997,10.63040828,5
-5.21713781,-1.56906404,10.26756286,5
-5.43288421,-1.30428445,8.82598495,5
-4.83467864,-0.59820566,7.27653408,7
-4.67777204,-0.37265267,8.01203250,5
-5.14849090,-0.04903325,7.34518098,5
-5.41327095,-0.05883990,8.04145336,5
-5.81534337,-0.71588544,9.27709102,5
-6.45277595,-1.40235099,9.95374965,6
-7.22750091,-1.63771057,10.81673526,5
-8.06106662,-1.62790384,11.03248119,5
-8.24739265,-1.25525128,11.25803470,6
-8.58081912,-0.48052587,10.75789546,6
-8.45333194,-0.09806651,10.52253532,5
-8.21797275,-0.21574630,9.93413639,5
-7.57073402,-0.68646550,10.02239608,5
-7.12943458,-1.32389783,9.57129096,6
-6.96272134,-2.04958987,9.61051750,5
-6.77639532,-2.43204927,9.80665016,5
-7.10982179,-2.42224264,9.29670429,6
-6.88426876,-2.23591613,9.09076499,6
-7.05098152,-1.52003073,7.88454675,5
-7.14904785,-0.65704560,7.33537435,5
-7.24711465,-0.13729310,6.90388154,5
-7.43344116,-0.17651968,6.84504175,5
-7.64918661,-0.91201848,7.14904785,6
-7.90416002,-1.76519718,7.57073402,5
-7.78648042,-2.01036334,8.09048652,6
-8.38468647,-2.21630287,9.15941143,5
-8.45333194,-1.71616373,8.33565330,6
-8.26700592,-1.13757133,8.30623245,5
-8.11009979,-0.59820566,7.14904785,5
-7.93357992,-0.45110592,6.08012294,5
-7.44324731,-0.50994582,5.91340970,5
-7.79628705,-0.74530534,5.20733118,6
-7.77667331,-1.15718472,5.06023120,6
-7.95319318,-1.44157752,5.36423778,5
-8.28662014,-1.14737808,5.37404394,5
-8.69849872,-0.92182512,5.81534337,6
-9.21825122,-0.37265267,6.17818975,5
-10.01259040,-0.04903325,6.53122901,5
-10.30678939,-0.10787315,6.91368818,5
-10.39504814,-0.26477956,6.69794225,6
-10.33620929,-0.30400614,6.27625608,6
-10.03220272,-0.19613300,6.02128362,5
-9.63993644,-0.10787315,5.56037044,5
-9.07115173,-0.23535962,4.95235824,6
-8.79656505,-0.60801229,4.33453941,5
-8.37487888,-0.70607876,3.52058744,5
-8.00222682,-0.88259859,3.27542114,5
-8.00222682,-0.70607876,2.44185590,5
-8.18855285,-0.58839898,1.63771057,7
-8.62985229,-0.21574630,1.61809730,5
-9.25747776,-0.00980665,2.63798880,5
-9.97336292,0.27458620,3.34406757,5
-10.70886230,0.34323275,4.08937311,5
-10.92460823,0.08825984,4.53067255,6
-11.19919395,-0.24516625,4.27569913,5
-11.20900154,-0.59820566,3.35387444,5
-10.79712104,-0.55897903,2.76547551,6
-9.99297714,-0.24516625,1.81423034,6
-9.70858383,-0.04903325,1.37293100,5
-9.26728439,0.04903325,1.13757133,5
-9.04173183,-0.18632633,1.04931151,5
-9.12018489,-0.54917240,0.89240512,6
-9.43399715,-0.68646550,0.88259859,5
-9.67916393,-0.70607876,1.23563790,5
-10.43427562,-0.62762565,1.56906404,6
-10.94422245,-0.40207266,1.98094348,5
-11.58165359,-0.27458620,2.80470199,6
-11.67971992,-0.28439283,3.29503440,5
-11.57184696,-0.40207266,3.48136067,5
-11.15996837,-0.67665886,3.31464767,5
-11.03248119,-1.05911827,3.05967497,6
-10.68924903,-1.21602463,2.52030897,5
-10.48330879,-1.12776482,1.52983751,6
-10.37543582,-0.78453202,0.65704560,6
-10.09104347,-0.53936576,0.55897903,5
-9.99297714,-0.27458620,0.41187930,5
-9.92432975,-0.36284604,0.37265267,5
-10.16949558,-0.61781892,0.00980665,5
-10.31659603,-0.60801229,-0.22555296,6
-10.43427562,-0.46091256,-0.43149261,5
-10.54214954,0.00000000,-0.54917240,6
-10.65002155,0.31381282,0.18632633,5
-10.99325561,-0.10787315,1.44157752,6
-11.12074089,-0.88259859,2.10842990,5
-11.38552093,-1.21602463,1.88287687,5
-11.15996837,-1.48080406,1.61809730,5
-10.75789546,-1.29447782,0.59820566,6
-10.11065673,-0.68646550,-0.21574630,5
-9.96355724,-0.18632633,-1.16699135,6
-9.63013076,-0.08825984,-1.51022410,5
-9.35554409,-0.10787315,-1.31409120,6
-9.35554409,-0.37265267,-0.82375860,5
-9.40457725,-0.75511207,-0.06864655,5
-9.63013076,-0.96105175,0.60801229,5
-9.97336292,-0.97085838,1.02969825,5
-10.25775623,-0.84337196,0.99047174,6
-10.59118270,-0.50013918,0.76491875,6
-10.56176280,-0.07845321,0.52955913,5
-10.53234195,0.05883990,0.39226600,5
-10.67944145,0.08825984,0.19613300,6
-10.42446899,-0.16671305,0.13729310,5
-10.02239608,-0.33342611,-0.16671305,5
-9.78703689,-0.41187930,-0.50994582,5
-9.13979816,-0.50013918,-0.75511207,6
-8.48275279,-0.65704560,-0.68646550,6
-8.02184009,-1.02969825,-0.69627218,5
-7.89435338,-1.62790384,-0.65704560,5
-7.95319318,-1.90249013,-0.84337196,5
-8.06106662,-1.87307014,-0.67665886,6
-8.41410541,-1.57887067,-0.52955913,5
-8.79656505,-1.07873153,-0.02941995,5
-8.98289203,-0.78453202,0.35303938,5
-8.91424465,-0.69627218,0.87279186,6
-8.89463138,-0.78453202,0.52955913,6
-8.83579158,-1.07873153,0.25497291,5
-8.51217174,-1.46119093,-0.22555296,5
-8.31603908,-1.72597036,-0.37265267,5
-8.21797275,-1.76519718,-0.05883990,6
-8.54159259,-1.77500367,-0.17651968,5
-9.00250434,-1.64751720,-0.35303938,5
-9.49283695,-1.35331773,-0.71588544,6
-9.70858383,-0.88259859,-0.60801229,5
-9.99297714,-0.67665886,-0.27458620,6
-10.21852970,-0.49033250,0.10787315,5
-10.21852970,-0.72569208,0.80414533,5
-10.16949558,-1.38273775,1.11795806,5
-10.12046241,-1.87307014,0.84337196,6
-9.91452407,-1.96133003,-0.05883990,5
-9.64974403,-1.90249013,-0.62762565,6
-9.33593082,-1.56906404,-1.65732383,5
-9.18883132,-1.10815143,-2.39282274,6
-9.35554409,-0.82375860,-3.19696807,5
-9.42419147,-0.82375860,-3.37348771,5
-9.47322463,-0.94143848,-3.17735457,5
-9.56148433,-1.25525128,-3.06948137,5
-9.42419147,-1.52983751,-2.82431507,6
-9.32612419,-1.84365024,-2.55953574,6
-9.24767112,-1.96133003,-2.62818241,5
-9.39477062,-2.14765644,-2.69682884,5
-9.35554409,-2.19668960,-2.37320923,6
-9.51245117,-2.04958987,-1.36312437,5
-9.76742362,-1.70635709,-0.62762565,5
-10.16949558,-1.55925726,0.01961330,5
-10.43427562,-1.75539040,0.16671305,6
-10.77750873,-1.76519718,-0.05883990,6
-10.83634853,-1.63771057,-0.29419948,5
-10.83634853,-1.55925726,-0.78453202,5
-10.81673526,-1.54945077,-1.47099757,6
-10.53234195,-1.53964414,-1.64751720,5
-9.78703689,-1.77500367,-1.85345687,5
-9.09076499,-2.05939650,-1.70635709,5
-9.05153751,-2.01036334,-1.98094348,6
-9.02211856,-2.04958987,-1.26505780,6
-9.34573745,-2.04958987,-0.85317859,5
-9.92432975,-1.91229667,-0.47071924,5
-10.12046241,-1.61809730,0.12748645,5
-10.22833633,-1.32389783,0.65704560,6
-10.06162357,-1.24544465,1.17679798,5
-9.61051750,-1.46119093,1.22583127,5
-9.31631755,-2.06920313,0.38245937,5
-9.04173183,-2.73605561,-0.68646550,7
-8.57101249,-2.98122138,-1.61809730,5
-8.14932632,-3.01064181,-2.71644210,5
-7.51189374,-2.38301610,-2.82431507,5
-6.95291471,-1.52983751,-3.59904074,6
-6.68813514,-1.44157752,-3.99130678,5
-6.43316268,-1.54945077,-3.23619461,5
-6.89407491,-2.08881640,-2.82431507,5
-7.30595445,-2.53011560,-2.20649623,7
-7.73744678,-2.52030897,-1.43177089,5
-7.97280693,-2.22610950,-1.05911827,5
-8.27681255,-1.91229667,-1.43177089,5
-8.52197933,-1.55925726,-1.58867731,5
-8.83579158,-1.49061069,-2.38301610,6
-8.91424465,-1.44157752,-2.74586200,5
-9.04173183,-1.45138416,-3.32445430,5
-8.77695178,-1.42196426,-3.35387444,6
-8.55139827,-1.40235099,-3.29503440,6
-8.25719928,-1.38273775,-2.70663547,5
-7.98261356,-1.48080406,-1.95152339,5
-8.04145336,-1.60829067,-1.43177089,5
-8.14932632,-1.67693719,-1.16699135,5
-8.38468647,-1.52983751,-1.18660461,6
-8.56120586,-1.16699135,-0.78453202,5
-8.62004566,-1.07873153,-0.27458620,6
-8.71811199,-1.36312437,0.30400614,5
-8.91424465,-1.54945077,0.72569208,6
-8.96327781,-1.85345687,0.61781892,5
-8.46313858,-2.00055670,0.39226600,5
-8.24739265,-2.04958987,-0.80414533,5
-7.58054065,-2.08881640,-2.36340260,5
-7.34518098,-2.12804293,-3.37348771,7
-7.59034729,-2.09862303,-5.10926485,5
-8.17874622,-1.74558377,-6.42335557,5
-8.30623245,-0.83356533,-6.31548261,5
-8.54159259,-0.35303938,-5.49172401,6
-8.80637168,0.38245937,-4.70719194,5
-9.16921806,0.42168598,-2.99102830,5
-9.87529659,-0.39226600,-1.28467119,5
-10.34601497,-1.50041747,-0.16671305,5
-11.23842144,-1.94171667,0.66685223,7
-11.52281379,-2.08881640,0.93163175,5
-11.56204032,-1.53964414,0.58839898,5
-11.40513420,-0.78453202,0.16671305,5
-11.21880817,-0.23535962,-1.02969825,6
-10.93441486,-0.00980665,-2.84392852,5
-10.26756286,0.28439283,-3.48136067,5
-9.69877719,0.51975245,-4.83467864,5
-9.01231193,0.73549880,-5.33481788,7
-8.78675842,0.64723892,-5.68785715,5
-8.22777938,0.46091256,-5.80553674,5
-8.06106662,0.04903325,-5.70747041,5
-8.08067989,-0.36284604,-5.27597761,6
-8.13951969,-0.61781892,-4.89351844,5
-8.53178596,-0.66685223,-4.40318584,5
-8.87501811,-0.63743219,-4.06975984,6
-8.90443801,-0.57859234,-4.03053331,5
-8.54159259,-0.52955913,-4.02072668,6
-8.21797275,-0.62762565,-4.45221900,5
-7.56092739,-1.03950488,-4.91313171,5
-7.08040142,-1.31409120,-5.62901735,5
-6.96272134,-1.82403697,-6.13896274,6
-6.91368818,-1.96133003,-6.72736167,5
-6.74697542,-1.79461693,-6.58026218,6
-6.88426876,-1.53964414,-6.60968255,5
-6.93330192,-1.12776482,-6.20760965,6
-7.10001468,-1.04931151,-5.32501077,5
-7.24711465,-1.44157752,-4.37376594,5
-7.25692129,-2.01036334,-3.66768717,5
-7.36479425,-2.26533627,-3.71672058,5
-7.26672792,-2.53011560,-3.90304679,6
-7.28634071,-2.16726970,-4.86409854,6
-7.08040142,-1.55925726,-4.79545164,5
-7.03136825,-0.97085838,-5.27597761,5
-7.01175451,-0.77472538,-5.57017755,6
-6.96272134,-0.73549880,-5.93302345,5
-6.77639532,-0.94143848,-6.04089641,5
-6.72736167,-1.18660461,-6.15857648,5
-6.62929534,-1.52983751,-6.54103565,5
-6.67832851,-1.68674383,-6.93330192,7
-6.64890861,-1.74558377,-6.90388154,5
-7.08040142,-1.52983751,-7.07059478,5
-7.17846775,-1.24544465,-6.74697542,5
-7.61976718,-1.02969825,-5.99186325,6
-8.10029315,-0.94143848,-5.80553674,5
-8.36507225,-0.79433865,-5.35443115,5
-8.69849872,-0.60801229,-4.93274545,5
-8.71811199,-0.58839898,-4.31492614,7
-8.78675842,-0.76491875,-4.28550624,5
-8.85540485,-1.08853816,-4.70719194,5
-8.34545898,-1.20621800,-4.92293834,5
-7.54131412,-1.01989161,-5.40346431,5
-7.32556724,-0.77472538,-6.65871572,6
-6.59006881,-0.72569208,-7.32556724,5
-6.30567598,-0.66685223,-7.83551359,5
-6.27625608,-0.74530534,-8.16893959,6
-6.37432241,-0.96105175,-8.58081912,6
-6.40374231,-1.12776482,-8.02184009,5
-6.37432241,-1.17679798,-7.40402078,5
-6.39393615,-1.38273775,-6.99214172,5
-6.65871572,-1.71616373,-6.22722291,5
-7.13924121,-1.92210340,-6.02128362,5
-7.22750091,-1.96133003,-5.66824388,5
-7.39421415,-1.76519718,-5.57998418,6
-7.50208711,-1.50041747,-5.43288421,5
-7.37460088,-1.46119093,-4.84448528,6
-7.16866111,-1.59848403,-4.95235824,5
-6.95291471,-1.77500367,-5.05042457,5
-6.44296932,-1.80442371,-5.84476375,5
-5.58979034,-1.81423034,-5.91340970,6
-5.10926485,-1.60829067,-6.97252845,5
-5.21713781,-1.69655036,-7.60015344,6
-4.75622558,-2.00055670,-8.18855285,5
-4.97197198,-2.14765644,-8.48275279,5
-4.78564548,-2.44185590,-8.41410541,6
-4.56009244,-2.58895564,-8.12971305,5
-4.51105928,-2.73605561,-7.53150749,5
-4.34434604,-2.58895564,-6.92349481,5
-4.43260574,-2.03978323,-6.45277595,6
-4.20705270,-1.52983751,-6.34490299,6
-4.13840627,-0.88259859,-6.28606271,5
-4.44241237,-0.66685223,-6.47238922,5
-4.65815877,-0.77472538,-6.54103565,6
-4.77583837,-1.46119093,-6.53122901,5
-4.90332508,-2.07900977,-6.67832851,5
-4.94255161,-2.37320923,-6.91368818,5
-4.70719194,-2.16726970,-7.25692129,5
-4.53067255,-1.83384361,-7.44324731,7
-3.58923387,-1.03950488,-7.78648042,5
-2.57914900,-0.11767981,-8.50236511,5
-1.57887067,0.47071924,-9.84587669,5
-1.08853816,0.15690641,-11.04228878,6
-0.27458620,-0.03922660,-11.95430660,5
-0.25497291,-0.43149261,-12.33676624,5
-0.35303938,-1.05911827,-12.67019271,5
-0.32361946,-1.74558377,-11.78759384,7
-0.46091256,-2.22610950,-11.11093521,5
-0.98066501,-2.33398270,-9.93413639,5
-1.44157752,-2.21630287,-9.26728439,5
-1.78481030,-2.14765644,-8.16893959,6
-2.04958987,-2.15746307,-7.44324731,5
-2.13784956,-2.28494954,-7.46286058,5
-2.14765644,-2.34378933,-8.38468647,5
-1.76519718,-2.52030897,-9.02211856,6
-1.16699135,-2.70663547,-10.14007663,6
-0.83356533,-2.66740894,-11.16977500,5
-0.25497291,-2.48108243,-11.59146118,5
0.21574630,-2.43204927,-12.26811981,5
0.04903325,-2.53992247,-12.53289890,6
-0.48052587,-2.74586200,-12.88593864,5
-1.05911827,-2.79489517,-12.64077281,5
-1.36312437,-2.57914900,-12.26811981,6
-2.26533627,-2.39282274,-11.45416736,6
-2.95180177,-2.15746307,-11.00306129,5
-4.00111341,-1.91229667,-10.63040828,5
-4.53067255,-1.78481030,-9.85568332,6
-4.88371181,-1.85345687,-9.67916393,5
-5.25636482,-1.78481030,-9.48303031,5
-5.49172401,-1.43177089,-9.75761699,5
-5.39365768,-1.44157752,-9.81645679,6
-5.20733118,-1.59848403,-10.07142925,6
-5.08965158,-2.13784956,-10.12046241,5
-4.62873888,-2.39282274,-10.41466236,5
-4.47183227,-2.77528190,-10.44408321,6
-4.41299247,-2.85373516,-10.35582256,5
-4.32473278,-2.52030897,-10.14988231,5
-4.51105928,-2.29475617,-10.16949558,5
-4.43260574,-2.28494954,-10.05181598,7
-4.57970571,-2.33398270,-10.10084915,5
-4.50125217,-2.36340260,-10.08123588,5
-4.62873888,-2.28494954,-10.30678939,5
-4.34434604,-2.15746307,-9.98316955,6
-4.29531288,-2.10842990,-10.46369647,5
-3.99130678,-2.10842990,-10.58137512,5
-3.82459335,-2.17707633,-10.82654190,5
-3.85401363,-2.06920313,-10.90499496,7
-3.83440017,-1.81423034,-10.89518737,5
-4.01092004,-1.64751720,-10.91480159,5
-4.13840627,-1.40235099,-10.51272964,6
-4.39337921,-1.13757133,-10.33620929,5
-4.65815877,-0.92182512,-9.84587669,5
-4.79545164,-0.87279186,-9.64974403,5
-4.86409854,-0.83356533,-9.51245117,6
-4.87390518,-1.01989161,-9.20844459,6
-4.89351844,-1.27486443,-9.15941143,5
-4.87390518,-1.42196426,-9.38496398,5
-4.87390518,-1.51022410,-9.50264358,5
-4.82487201,-1.52003073,-9.89490985,6
-4.70719194,-1.33370447,-9.99297714,5
-4.61893224,-1.03950488,-10.09104347,5
-4.37376594,-0.92182512,-10.06162357,5
-4.28550624,-1.01989161,-10.04201030,7
-4.30511951,-1.20621800,-9.71839046,5
-4.35415267,-1.54945077,-9.55167675,5
-4.56009244,-1.86326351,-9.02211856,5
-4.80525875,-2.09862303,-8.42391300,6
-5.07003831,-2.16726970,-8.11009979,5
-5.39365768,-2.11823654,-7.65899372,5
-5.61921072,-1.91229667,-7.43344116,5
-5.75650358,-1.66713056,-7.18827438,6
-5.77611684,-1.51022410,-7.25692129,5
-5.76631021,-1.46119093,-7.51189374,5
-5.61921072,-1.56906404,-7.86493349,5
-5.48191738,-1.83384361,-7.98261356,5
-5.12887811,-2.10842990,-7.89435338,6
-5.03081178,-2.21630287,-7.88454675,5
-5.05042457,-2.27514266,-7.64918661,5
-5.22694444,-2.29475617,-7.54131412,6
-5.60940408,-2.26533627,-7.53150749,6
-5.92321634,-2.22610950,-7.27653408,5
-6.10954332,-2.07900977,-6.91368818,5
-6.26644945,-1.95152339,-6.41354894,5
-6.36451578,-1.90249013,-6.11934995,6
-6.33509635,-1.97113666,-5.95263671,5
-6.38412952,-2.12804293,-5.99186325,5
-6.37432241,-2.33398270,-6.36451578,6
-6.29586982,-2.33398270,-7.15885496,5
-6.20760965,-2.25552964,-7.74725389,6
-6.05070304,-2.00055670,-8.06106662,5
-5.96244287,-1.64751720,-8.41410541,5
-5.83495712,-1.57887067,-8.27681255,5
-5.86437654,-1.63771057,-7.90416002,6
-6.11934995,-1.90249013,-7.84532022,6
-6.47238922,-2.13784956,-7.87473964,5
-6.75678205,-2.09862303,-7.86493349,5
-6.74697542,-1.72597036,-7.74725389,5
-6.86465501,-1.48080406,-7.57073402,6
-6.86465501,-1.20621800,-7.50208711,5
-6.77639532,-1.13757133,-7.48247432,5
-6.50180912,-1.37293100,-7.37460088,5
-6.39393615,-1.68674383,-7.86493349,7
-6.16838312,-1.87307014,-7.99241971,5
-5.83495712,-2.17707633,-8.06106662,5
-5.70747041,-2.41243600,-8.40429878,5
-5.57998418,-2.60856890,-8.58081912,5
-5.62901735,-2.55953574,-8.92405223,6
-5.63882350,-2.53011560,-8.94366455,5
-5.60940408,-2.23591613,-9.12018489,5
-5.51133728,-1.92210340,-9.15941143,5
-5.49172401,-1.72597036,-8.96327781,7
-5.39365768,-1.75539040,-8.56120586,5
-5.40346431,-1.85345687,-8.34545898,5
-5.52114439,-2.05939650,-8.27681255,5
-5.60940408,-2.33398270,-8.62985229,6
-5.68785715,-2.35359597,-8.85540485,5
-5.59959697,-2.26533627,-9.13979816,5
-5.52114439,-1.88287687,-9.43399715,6
-5.51133728,-1.56906404,-9.86549091,6
-5.16810464,-1.60829067,-9.77723026,5
-4.92293834,-2.00055670,-9.74781036,5
-4.88371181,-2.25552964,-9.91452407,5
-4.74641847,-2.88315505,-9.85568332,5
-5.05042457,-3.24600124,-10.05181598,6
-5.08965158,-3.27542114,-10.12046241,5
-5.21713781,-3.09890151,-9.81645679,6
-5.11907148,-3.05967497,-10.01259040,5
-5.31520414,-3.27542114,-10.07142925,6
-5.24655818,-3.60884737,-10.60098838,5
-5.02100515,-4.00111341,-10.90499496,5
-4.94255161,-4.33453941,-11.24822711,5
-4.73661231,-4.47183227,-11.63068675,6
-4.64835214,-4.89351844,-11.69933319,5
-4.58951234,-5.11907148,-11.66010761,6
-4.90332508,-5.10926485,-11.37571430,6
-5.21713781,-4.56989908,-10.11065673,5
-6.04089641,-4.02072668,-9.84587669,5
-6.57045555,-3.88343334,-8.26700592,5
-7.77667331,-3.61865377,-8.81617832,6
-8.27681255,-3.47155427,-8.58081912,5
-8.43371963,-3.18716120,-9.07115173,5
-8.59062576,-2.79489517,-9.78703689,6
-8.62004566,-2.55953574,-10.48330879,6
-8.04145336,-2.35359597,-10.97364139,5
-7.78648042,-2.21630287,-12.07198619,5
-7.76686668,-1.87307014,-12.94477844,5
-7.87473964,-1.21602463,-13.09187793,6
-8.28662014,-0.70607876,-12.87613105,5
-8.90443801,0.31381282,-12.48386573,5
-9.48303031,1.38273775,-11.41494083,6
-10.20872306,2.01036334,-10.65982913,6
-10.35582256,2.10842990,-9.97336292,5
-10.74808788,1.95152339,-9.41438388,5
-10.74808788,1.52983751,-8.94366455,6
-10.56176280,1.18660461,-8.07087326,5
-10.34601497,1.01008498,-8.18855285,5
-9.72819709,1.11795806,-8.05125999,5
-9.12999153,1.25525128,-8.78675842,7
-7.81590032,1.46119093,-8.62004566,5
-7.23730754,1.61809730,-9.31631755,5
-6.39393615,1.49061069,-8.65927219,5
-6.27625608,0.96105175,-8.18855285,5
-5.58979034,0.49033250,-7.94338655,6
-5.03081178,-0.89240512,-7.41382741,5
-4.52086591,-1.80442371,-5.96244287,5
-4.53067255,-2.51050257,-5.35443115,6
-4.24627971,-2.68702197,-4.53067255,6
-4.34434604,-2.68702197,-3.92266006,5
-4.60912561,-2.71644210,-3.69710707,5
-4.71699857,-2.70663547,-3.33426117,5
-4.73661231,-2.58895564,-3.56962060,6
-4.70719194,-2.45166254,-4.15801954,5
-4.30511951,-1.84365024,-4.02072668,5
-4.18743944,-0.82375860,-4.39337921,6
-3.95207996,0.05883990,-4.36395931,5
-3.85401363,0.50013918,-4.62873888,6
-3.77556014,0.51975245,-5.27597761,5
-4.08937311,0.25497291,-5.87418317,5
-4.27569913,-0.25497291,-6.26644945,5
-4.63854551,-0.52955913,-5.93302345,6
-4.97197198,-0.46091256,-5.30539798,5
-5.51133728,-0.36284604,-4.88371181,6
-6.09973621,0.16671305,-4.74641847,5
-6.77639532,0.85317859,-4.28550624,5
-7.37460088,1.57887067,-3.60884737,6
-7.65899372,1.93191003,-2.66740894,5
-8.21797275,1.99074993,-1.77500367,5
-8.59062576,1.92210340,-1.51022410,5
-8.93385887,1.51022410,-1.10815143,5
-9.02211856,0.89240512,-0.74530534,7
-9.18883132,0.14709974,-0.97085838,5
-9.07115173,-0.24516625,-1.43177089,5
-8.80637168,-0.74530534,-1.91229667,5
-8.35526561,-0.73549880,-2.95180177,6
-8.06106662,-0.41187930,-3.92266006,5
-7.62957382,-0.17651968,-4.53067255,5
-7.10001468,0.14709974,-4.57970571,5
-6.61948919,0.12748645,-4.77583837,6
-6.25664281,-0.50013918,-4.79545164,6
-6.24683618,-1.42196426,-4.53067255,5
-6.32528924,-1.87307014,-4.12859964,5
-6.94310855,-2.41243600,-3.83440017,5
-7.60015344,-2.44185590,-3.50097393,6
-8.12971305,-1.93191003,-3.04006147,5
-8.33565330,-1.22583127,-2.67721557,5
-8.76714515,-0.93163175,-2.45166254,6
-8.95347118,-0.64723892,-2.27514266,5
-8.99269771,-0.84337196,-1.97113666,6
-8.87501811,-1.37293100,-1.56906404,5
-8.83579158,-1.99074993,-1.73577713,5
-8.72791862,-2.32417607,-1.94171667,5
-8.67888545,-2.75566864,-2.22610950,6
-8.52197933,-2.93218822,-2.93218822,5
-8.39449214,-2.63798880,-3.65788054,6
-8.25719928,-2.30456280,-4.32473278,5
-8.10029315,-1.63771057,-4.90332508,6
-7.87473964,-1.27486443,-5.01119804,5
-7.81590032,-1.26505780,-5.51133728,5
-7.84532022,-1.49061069,-5.46230411,5
-7.91396665,-1.60829067,-5.04061794,5
-8.19835948,-1.67693719,-4.56009244,6
-8.77695178,-1.52003073,-3.90304679,6
-9.21825122,-1.26505780,-3.22638797,5
-9.44380378,-0.98066501,-2.73605561,5
-9.83607006,-0.80414533,-2.66740894,6
-9.80665016,-0.72569208,-2.86354179,5
-9.39477062,-0.88259859,-3.43232750,5
-8.74753189,-1.13757133,-4.20705270,5
-8.30623245,-1.35331773,-5.08965158,5
-7.59034729,-1.41215753,-5.77611684,7
-6.99214172,-1.36312437,-6.20760965,5
-6.61948919,-1.24544465,-6.82542848,5
-6.50180912,-0.94143848,-6.98233509,5
-6.55084228,-0.85317859,-7.01175451,6
-6.65871572,-0.82375860,-6.72736167,5
-6.80581521,-0.95124511,-6.55084228,5
-6.96272134,-1.24544465,-5.96244287,5
-7.11962795,-1.50041747,-5.66824388,7
-7.26672792,-1.52003073,-5.54075717,5
-7.42363452,-1.43177089,-5.72708368,5
-7.48247432,-1.10815143,-5.82515001,5
-7.59034729,-0.68646550,-6.21741628,5
-7.57073402,-0.31381282,-6.85484838,6
-7.52170085,-0.16671305,-7.30595445,5
-7.09020805,0.09806651,-7.90416002,5
-6.74697542,0.17651968,-8.19835948,6
-6.25664281,0.18632633,-8.64946556,5
-6.08012294,0.22555296,-9.13979816,6
-5.84476375,0.24516625,-9.35554409,5
-5.70747041,0.27458620,-9.26728439,5
-5.69766330,0.30400614,-9.04173183,5
-5.70747041,0.23535962,-8.72791862,6
-5.68785715,-0.16671305,-8.56120586,5
-5.53095102,-0.45110592,-8.90443801,6
-5.35443115,-1.04931151,-9.25747776,5
-5.17791128,-1.65732383,-10.17930316,5
-4.68757867,-2.08881640,-10.67944145,6
-4.57970571,-2.17707633,-11.62088012,5
-4.15801954,-2.14765644,-12.21908664,5
-3.82459335,-1.92210340,-12.48386573,6
-3.79517364,-1.62790384,-12.77806472,5
-3.86382007,-1.33370447,-12.64077281,6
-3.94227333,-1.43177089,-12.21908664,5
-4.09917974,-1.48080406,-11.16977500,6
-4.61893224,-1.70635709,-10.57156848,5
-5.29559135,-2.15746307,-9.89490985,5
-5.72708368,-2.76547551,-9.36535072,5
-6.00166988,-2.98122138,-9.37515735,6
-5.96244287,-2.90276832,-9.19863796,5
-5.87418317,-2.26533627,-9.03192520,6
-5.76631021,-1.37293100,-9.13979816,5
-5.68785715,-0.96105175,-9.62032413,6
-5.64863014,-0.92182512,-10.28717613,5
-5.52114439,-0.85317859,-10.42446899,5
-5.28578424,-0.78453202,-10.20872306,5
-5.13868474,-0.86298522,-9.74781036,6
-5.30539798,-1.17679798,-9.56148433,5
-5.27597761,-1.44157752,-9.34573745,6
-5.57017755,-1.42196426,-9.24767112,5
-5.83495712,-1.15718472,-9.21825122,6
-6.06050968,-0.57859234,-9.18883132,5
-6.31548261,0.00000000,-9.15941143,5
-6.33509635,0.42168598,-9.11037826,5
-6.37432241,0.57859234,-8.79656505,5
-6.39393615,0.72569208,-8.48275279,7
-6.48219585,0.49033250,-7.62957382,5
-6.50180912,-0.00980665,-6.44296932,5
-6.76658868,-0.28439283,-5.75650358,5
-6.91368818,-0.98066501,-5.32501077,5
-6.90388154,-1.52983751,-5.34462451,6
-6.54103565,-1.77500367,-5.05042457,5
-6.36451578,-1.84365024,-5.53095102,5
-5.93302345,-1.95152339,-6.21741628,5
-5.52114439,-1.88287687,-7.06078863,7
-5.07984495,-1.47099757,-7.60996055,5
-5.25636482,-0.81395187,-8.06106662,5
-5.49172401,-0.46091256,-6.73716831,5
-5.57998418,-0.52955913,-5.31520414,5
-6.50180912,-1.01008498,-4.62873888,6
-6.84504175,-1.87307014,-2.59876203,5
-7.58054065,-2.43204927,-1.68674383,5
-7.68841361,-2.72624874,-1.06892478,6
-7.83551359,-2.66740894,-1.21602463,6
-8.08067989,-2.22610950,-1.48080406,5
-7.89435338,-1.64751720,-1.48080406,5
-7.90416002,-1.20621800,-1.84365024,5
-7.86493349,-1.04931151,-2.33398270,5
-7.61976718,-1.11795806,-2.86354179,6
-7.58054065,-1.29447782,-3.44213438,6
-7.51189374,-1.38273775,-3.63826704,5
-7.53150749,-1.22583127,-3.38329434,5
-7.77667331,-0.97085838,-3.01064181,6
-8.00222682,-0.44129929,-3.01064181,5
-8.24739265,0.04903325,-2.85373516,5
-8.51217174,0.43149261,-2.70663547,5
-8.62985229,0.37265267,-2.02016997,5
-9.08095836,0.28439283,-0.71588544,6
-9.85568332,-0.10787315,0.00000000,5
-10.82654190,-0.43149261,1.38273775,5
-11.49339485,-0.72569208,3.42252087,5
-12.04256725,-1.02969825,4.66796541,6
-13.18013763,-1.13757133,5.90360355,5
-14.04312324,-1.36312437,6.20760965,5
-14.71978187,-1.41215753,6.59987545,5
-15.12185478,-1.18660461,6.72736167,7
-15.14146804,-0.86298522,6.33509635,5
-15.03359508,-0.73549880,4.99158477,5
-14.50403499,-0.57859234,4.08937311,5
-13.47433662,-0.44129929,2.46146917,6
-12.38579940,-0.34323275,0.92182512,5
-11.76798057,-0.39226600,-0.57859234,5
-10.58137512,-0.43149261,-1.68674383,5
-10.03220272,-0.60801229,-2.11823654,7
-10.03220272,-0.91201848,-2.17707633,5
-10.63040828,-1.23563790,-1.65732383,5
-11.03248119,-1.20621800,-0.43149261,6
-12.14063358,-1.22583127,1.03950488,5
-12.92516422,-1.25525128,2.49088931,5
-13.92544269,-1.14737808,3.51078081,5
-14.13138294,-1.30428445,5.12887811,6
-14.21964359,-1.63771057,5.95263671,6
-14.03331661,-1.86326351,5.12887811,5
-13.28801155,-2.31436944,3.80498027,5
-12.46425247,-2.54972887,2.81450862,6
-11.70914077,-2.40262937,0.46091256,5
-11.34629344,-1.96133003,-1.22583127,5
-10.64021587,-1.22583127,-2.54972887,5
-10.18910980,-0.97085838,-3.07928824,6
-9.86549091,-0.61781892,-3.21658134,6
-9.94394397,-0.68646550,-3.01064181,5
-10.18910980,-1.00027835,-2.32417607,5
-10.65982913,-1.29447782,-0.97085838,6
-11.17958068,-1.41215753,0.13729310,5
-11.54242801,-1.55925726,0.73549880,5
-11.71894741,-1.69655036,1.82403697,5
-11.80720710,-1.95152339,2.24572300,6
-11.83662700,-2.16726970,2.27514266,6
-11.67971992,-2.28494954,1.72597036,5
-11.18938827,-2.28494954,1.37293100,6
-10.62060165,-2.07900977,0.23535962,5
-10.14007663,-1.84365024,-0.85317859,5
-9.93413639,-1.63771057,-1.56906404,5
-9.61051750,-1.58867731,-2.08881640,5
-9.41438388,-1.55925726,-2.16726970,6
-9.43399715,-1.66713056,-2.25552964,6
-9.49283695,-1.78481030,-2.10842990,5
-9.61051750,-1.96133003,-1.86326351,5
-9.70858383,-1.94171667,-1.58867731,6
-9.96355724,-1.90249013,-1.44157752,5
-10.23814296,-1.84365024,-0.95124511,5
-10.33620929,-1.74558377,-0.53936576,5
-10.39504814,-1.71616373,-0.23535962,6
-10.42446899,-1.67693719,-0.13729310,6
-10.15968990,-1.61809730,-0.16671305,5
-9.87529659,-1.71616373,-0.50994582,5
-9.91452407,-1.82403697,-1.10815143,6
-9.61051750,-1.77500367,-1.52003073,5
-9.73800373,-1.59848403,-2.15746307,5
-9.63993644,-1.31409120,-2.33398270,5
-9.66935729,-1.08853816,-3.00083494,5
-9.48303031,-0.95124511,-2.80470199,7
-9.28689765,-0.96105175,-2.93218822,5
-8.98289203,-1.16699135,-2.91257495,5
-8.68869209,-1.57887067,-2.96160812,5
-8.52197933,-2.02016997,-2.96160812,6
-8.38468647,-2.27514266,-2.63798880,5
-8.46313858,-2.30456280,-2.19668960,5
-8.62985229,-2.27514266,-1.91229667,5
-8.98289203,-2.03978323,-1.58867731,7
-9.27709102,-1.77500367,-1.25525128,5
-9.31631755,-1.53964414,-1.05911827,5
-9.38496398,-1.49061069,-1.15718472,5
-9.15941143,-1.56906404,-1.21602463,5
-8.76714515,-1.85345687,-1.64751720,6
-8.29642581,-2.09862303,-2.27514266,5
-8.09048652,-2.33398270,-2.76547551,5
-7.78648042,-2.30456280,-3.48136067,6
-7.69822072,-2.20649623,-3.73633384,6
-7.49228048,-1.83384361,-3.62846064,5
-7.53150749,-1.31409120,-3.57942748,5
-7.76686668,-0.96105175,-2.86354179,5
-7.99241971,-0.85317859,-2.16726970,5
-8.28662014,-0.79433865,-1.88287687,6
-8.40429878,-0.82375860,-1.12776482,5
-8.43371963,-0.90221185,-1.03950488,6
-8.47294616,-0.91201848,-1.24544465,5
-8.09048652,-0.82375860,-1.49061069,6
-7.54131412,-0.76491875,-2.21630287,5
-7.00194787,-0.76491875,-3.13812804,5
-6.67832851,-0.85317859,-4.13840627,5
-6.13896274,-0.85317859,-5.10926485,5
-5.76631021,-0.91201848,-5.50153064,6
-5.37404394,-0.76491875,-5.72708368,6
-5.29559135,-0.48052587,-5.63882350,5
-5.29559135,-0.39226600,-5.32501077,5
-5.23675107,-0.20593965,-4.60912561,6
-5.84476375,0.41187930,-4.44241237,5
-5.73689031,1.07873153,-2.68702197,5
-5.71727705,1.39254438,-1.39254438,5
-5.22694444,0.84337196,-1.33370447,5
-4.63854551,0.20593965,-0.64723892,7
-3.98149986,-1.33370447,-0.99047174,5
-3.75594687,-2.74586200,-2.11823654,5
-3.49116754,-3.51078081,-2.33398270,5
-3.48136067,-3.55000734,-2.33398270,6
-3.22638797,-3.15774130,-2.51050257,5
-2.90276832,-2.18688297,-2.19668960,5
-2.72624874,-1.37293100,-1.99074993,5
-2.69682884,-0.03922660,-1.65732383,6
-3.38329434,0.41187930,-1.78481030,6
-3.09890151,0.60801229,0.00980665,5
-3.79517364,0.07845321,-0.12748645,5
-4.05995321,-0.63743219,-0.19613300,5
-4.18743944,-0.68646550,-0.73549880,5
-3.60884737,-0.50994582,-0.73549880,6
-3.28522777,0.17651968,-1.03950488,5
-2.91257495,0.44129929,-1.96133003,6
-2.74586200,0.16671305,-3.71672058,5
-2.97141504,0.00980665,-5.18771791,6
-3.01064181,-0.11767981,-5.08965158,5
-3.39310073,0.27458620,-4.41299247,5
-4.14821290,0.98066501,-3.55000734,5
-4.62873888,1.42196426,-2.25552964,5
-5.43288421,1.60829067,-0.99047174,6
-6.02128362,1.90249013,-0.52955913,6
-6.68813514,2.25552964,-0.03922660,5
-6.73716831,2.72624874,0.86298522,5
-6.72736167,2.90276832,1.38273775,5
-6.65871572,2.68702197,1.08853816,6
-6.49200248,1.74558377,0.82375860,5
-6.12915611,0.37265267,0.52955913,5
-6.11934995,-0.88259859,0.12748645,5
-6.18799591,-1.75539040,0.01961330,7
-6.69794225,-2.00055670,0.16671305,5
-7.54131412,-2.17707633,0.22555296,5
-8.49255943,-1.85345687,0.61781892,5
-8.95347118,-1.00027835,1.83384361,5
-9.71839046,-0.50013918,3.37348771,6
-10.34601497,0.50994582,4.99158477,5
-10.69905471,0.99047174,5.71727705,5
-10.53234195,0.61781892,6.49200248,6
-10.32640266,-0.50013918,6.98233509,6
-9.54187011,-1.25525128,7.11962795,5
-9.06134510,-2.74586200,6.62929534,5
-8.96327781,-3.95207996,6.24683618,5
-8.98289203,-4.76603221,5.85457038,6
-9.07115173,-4.82487201,6.25664281,5
-9.38496398,-4.66796541,6.05070304,5
-9.50264358,-3.71672058,6.13896274,6
-9.63013076,-2.56934237,5.81534337,5
-9.76742362,-1.65732383,4.92293834,6
-9.75761699,-1.44157752,3.49116754,5
-9.81645679,-1.44157752,2.02016997,5
-9.87529659,-1.53964414,1.38273775,5
-9.80665016,-1.31409120,0.57859234,6
-9.72819709,-0.87279186,0.15690641,5
-9.65955066,-0.66685223,0.01961330,6
-9.81645679,-0.71588544,0.10787315,5
-10.19891548,-1.22583127,0.47071924,5
-10.72847557,-2.01036334,1.80442371,6
-11.57184696,-2.60856890,4.08937311,5
-12.10140609,-2.91257495,6.25664281,5
-13.52336978,-2.94199514,8.00222682,6
-14.88649463,-2.59876203,8.86521148,5
-16.11232566,-1.73577713,9.88510322,6
-16.95569801,-0.64723892,10.30678939,5
-17.24009132,0.28439283,10.01259040,6
-17.35777091,0.56878566,8.92405223,5
-17.08318519,0.84337196,8.06106662,5
-16.25942611,0.76491875,6.02128362,5
-15.21992111,0.46091256,3.26561450,6
-14.74920177,0.45110592,0.41187930,5
-13.91563701,0.64723892,-1.69655036,6
-13.43511104,1.18660461,-2.35359597,5
-13.33704471,1.90249013,-2.94199514,6
-13.78814983,2.41243600,-2.31436944,5
-14.16080284,2.44185590,-0.60801229,5
-15.09243488,2.30456280,2.02997660,5
-16.15155220,1.74558377,3.42252087,6
-17.04395866,0.98066501,5.96244287,6
-17.68139076,0.23535962,7.92377376,5
-17.84810447,-0.26477956,9.14960479,5
-18.19133567,-0.41187930,9.38496398,6
-18.23056221,-0.32361946,9.05153751,5
-17.93636322,0.10787315,8.13951969,5
-17.38718986,1.00027835,6.08992958,5
-17.01453781,1.92210340,4.10898637,6
-16.23981285,2.37320923,1.96133003,6
-15.25914764,2.91257495,0.07845321,5
-14.45500183,3.03025484,-0.68646550,5
-13.86660385,2.78508877,-1.83384361,6
-13.56259727,2.65760207,-1.98094348,5
-13.40569019,2.64779567,-1.81423034,5
-13.26839828,2.73605561,-0.62762565,6
-13.51356410,2.81450862,0.05883990,5
-14.04312324,2.65760207,1.48080406,6
-14.22944927,2.39282274,2.84392852,5
-14.61190891,2.24572300,4.27569913,6
-14.82765483,2.05939650,5.21713781,5
-14.89630222,2.03978323,5.50153064,5
-14.59229564,2.01036334,5.68785715,5
-14.37654876,1.85345687,4.75622558,6
-13.78814983,1.66713056,3.92266006,5
-12.88593864,1.63771057,2.86354179,6
-11.97391986,1.67693719,2.24572300,5
-11.13054752,1.87307014,1.35331773,6
-10.90499496,2.05939650,0.44129929,5
-10.57156848,2.08881640,0.11767981,5
-10.39504814,2.09862303,0.02941995,5
-10.30678939,2.10842990,0.05883990,6
-10.35582256,2.29475617,0.42168598,5
-10.41466236,2.40262937,1.09834480,6
-10.48330879,2.31436944,1.60829067,5
-10.53234195,2.03978323,2.18688297,6
-10.55195522,1.99074993,2.05939650,5
-10.40485572,2.20649623,1.70635709,5
-10.20872306,2.66740894,1.70635709,5
-9.87529659,3.04986810,1.39254438,6
-9.58109760,3.14793491,1.62790384,5
-9.41438388,3.23619461,1.28467119,6
-9.03192520,3.12832140,1.61809730,5
-9.19863796,3.14793491,1.65732383,6
-8.92405223,3.21658134,1.97113666,5
-8.80637168,3.40290760,2.45166254,5
-8.75733852,3.61865377,2.60856890,5
-8.77695178,3.72652697,2.65760207,5
-8.92405223,3.81478691,2.08881640,6
-8.94366455,3.92266006,1.52003073,6
-9.12018489,4.23647308,1.29447782,5
-9.36535072,4.81506538,0.81395187,5
-9.41438388,5.50153064,0.37265267,6
-9.43399715,6.28606271,0.39226600,5
-9.43399715,6.68813514,0.59820566,5
-9.62032413,7.48247432,0.79433865,5
-9.80665016,8.03164672,1.39254438,5
-10.15968990,8.22777938,1.78481030,7
-10.32640266,8.19835948,2.71644210,5
-10.77750873,8.08067989,2.79489517,5
-11.05209445,7.96299982,2.93218822,5
-11.29726028,7.90416002,2.59876203,6
-10.94422245,7.91396665,2.02997660,5
-10.85596179,7.91396665,0.67665886,5
-10.46369647,7.95319318,-0.84337196,5
-10.13027000,8.07087326,-1.64751720,7
-9.68897056,8.30623245,-2.97141504,5
-9.12999153,8.64946556,-3.60884737,5
-9.08095836,9.05153751,-3.91285324,5
-9.24767112,9.25747776,-3.78536701,6
-9.20844459,9.47322463,-3.35387444,5
-9.51245117,9.22805786,-2.31436944,5
-9.70858383,8.56120586,-0.29419948,5
-9.96355724,7.49228048,1.83384361,7
-10.55195522,6.69794225,3.14793491,5
-11.12074089,5.09945774,3.40290760,5
-11.60126686,3.70691370,2.69682884,5
-11.60126686,2.82431507,2.07900977,6
-11.21880817,2.37320923,1.24544465,5
-10.52253532,2.19668960,1.43177089,5
-9.80665016,1.83384361,1.51022410,5
-9.09076499,0.74530534,2.43204927,6
-9.13979816,-0.73549880,3.33426117,5
-9.33593082,-2.07900977,4.45221900,5
-10.38524246,-2.58895564,5.46230411,5
-11.25803470,-3.04986810,5.27597761,5
-11.36590766,-3.07928824,5.04061794,6
-11.26784133,-2.67721557,5.14849090,5
-10.86576843,-2.41243600,4.34434604,5
-9.88510322,-2.06920313,3.75594687,6
-8.26700592,-2.03978323,3.26561450,6
-6.32528924,-2.69682884,2.76547551,5
-5.47211122,-3.73633384,2.08881640,5
-3.90304679,-4.29531288,1.54945077,5
-2.96160812,-5.47211122,1.19641137,6
-2.93218822,-6.67832851,1.12776482,5
-3.55000734,-7.64918661,0.97085838,5
-4.05014657,-8.10029315,0.15690641,6
-4.90332508,-7.84532022,0.42168598,5
-5.43288421,-6.61948919,1.04931151,6
-5.60940408,-4.94255161,2.95180177,5
-5.53095102,-3.76575374,5.41327095,5
-5.57998418,-4.00111341,7.35498762,5
-5.35443115,-4.64835214,9.17902469,6
-5.21713781,-6.37432241,9.18883132,5
-5.36423778,-7.98261356,9.43399715,6
-5.69766330,-8.89463138,8.26700592,5
-5.78592348,-8.95347118,6.40374231,6
-5.90360355,-8.64946556,4.60912561,5
-5.59959697,-7.47266769,3.78536701,5
-5.42307710,-5.95263671,2.45166254,5
-5.54075717,-4.47183227,2.09862303,5
-5.69766330,-3.56962060,2.39282274,6
-6.35470914,-3.35387444,3.01064181,6
-7.37460088,-3.27542114,3.04006147,5
-8.38468647,-3.34406757,3.28522777,5
-8.90443801,-3.36368083,4.50125217,6
-10.06162357,-3.21658134,5.28578424,5
-10.96383476,-2.98122138,5.69766330,5
-11.57184696,-2.80470199,5.78592348,5
-11.46397399,-2.66740894,6.31548261,6
-11.47378063,-2.69682884,5.27597761,6
-11.00306129,-2.99102830,4.08937311,5
-10.21852970,-3.20677447,2.98122138,5
-9.44380378,-3.37348771,2.27514266,6
-8.58081912,-3.29503440,1.38273775,5
-8.25719928,-3.07928824,0.74530534,5
-7.92377376,-2.91257495,0.40207266,5
-8.13951969,-2.92238187,0.90221185,6
-8.93385887,-3.04986810,1.40235099,6
-9.80665016,-3.15774130,2.48108243,5
-10.16949558,-3.04986810,3.50097393,5
-10.58137512,-2.95180177,4.52086591,5
-10.57156848,-2.78508877,5.29559135,6
-10.51272964,-2.99102830,5.60940408,5
-10.45388889,-3.47155427,5.54075717,5
-10.46369647,-3.94227333,4.62873888,6
-10.07142925,-4.06975984,3.50097393,6
-9.59090328,-3.88343334,2.65760207,5
-9.22805786,-3.20677447,2.28494954,5
-8.89463138,-2.56934237,1.64751720,6
-8.79656505,-2.12804293,1.61809730,5
-8.81617832,-2.12804293,2.12804293,5
-9.12999153,-2.35359597,2.64779567,5
-9.63993644,-2.83412189,2.95180177,5
-10.14988231,-3.16754817,3.36368083,7
-10.36562919,-3.26561450,3.82459335,5
-10.70886230,-3.15774130,4.13840627,5
-10.84615421,-2.80470199,4.22666597,5
-10.75789546,-2.39282274,4.22666597,6
-10.67944145,-2.01036334,4.34434604,5
-10.61079597,-1.91229667,4.13840627,5
-10.36562919,-2.02997660,3.96188688,7
-10.11065673,-2.15746307,3.42252087,5
-9.87529659,-2.40262937,3.10870814,5
-9.69877719,-2.44185590,2.39282274,5
-9.59090328,-2.43204927,2.06920313,5
-9.30651092,-2.38301610,1.44157752,6
-9.25747776,-2.36340260,1.23563790,5
-9.35554409,-2.35359597,1.22583127,5
-9.47322463,-2.26533627,1.62790384,5
-9.57129096,-2.00055670,2.05939650,7
-9.65955066,-1.81423034,2.44185590,5
-9.74781036,-1.67693719,2.61837553,5
-9.71839046,-1.72597036,2.58895564,5
-9.71839046,-2.04958987,2.79489517,5
-9.70858383,-2.38301610,2.74586200,6
-9.63013076,-2.45166254,2.45166254,5
-9.57129096,-2.45166254,2.31436944,6
-9.42419147,-2.18688297,2.17707633,5
-9.33593082,-1.96133003,2.27514266,6
-9.36535072,-1.89268350,2.42224264,5
-9.47322463,-1.96133003,2.45166254,5
-9.63993644,-2.05939650,2.35359597,5
-9.61051750,-2.05939650,2.01036334,5
-9.59090328,-1.84365024,1.89268350,6
-9.43399715,-1.68674383,1.93191003,6
-9.42419147,-1.51022410,1.90249013,5
-9.40457725,-1.46119093,1.92210340,5
-9.36535072,-1.64751720,1.83384361,6
-9.28689765,-1.81423034,1.97113666,5
-9.21825122,-1.82403697,2.06920313,5
-9.34573745,-1.89268350,2.03978323,5
-9.48303031,-1.96133003,1.95152339,5
-9.61051750,-1.89268350,1.83384361,7
-9.60070991,-1.76519718,1.71616373,5
-9.50264358,-1.63771057,1.72597036,5
-9.40457725,-1.43177089,1.75539040,5
-9.25747776,-1.45138416,1.79461693,5
-9.16921806,-1.68674383,1.84365024,6
-9.15941143,-2.06920313,1.90249013,5
-9.17902469,-2.24572300,1.91229667,5
-9.23786449,-2.37320923,1.75539040,6
-9.17902469,-2.30456280,1.58867731,6
-9.09076499,-2.01036334,1.48080406,5
-9.09076499,-1.87307014,1.72597036,5
-9.09076499,-1.91229667,1.99074993,5
-9.11037826,-2.02997660,2.04958987,5
-9.20844459,-2.28494954,2.34378933,6
-9.17902469,-2.55953574,2.56934237,5
-9.17902469,-2.65760207,2.61837553,6
-9.32612419,-2.82431507,2.56934237,5
-9.41438388,-2.84392852,2.39282274,6
-9.45361042,-2.66740894,2.13784956,5
-9.44380378,-2.41243600,1.98094348,5
-9.49283695,-2.23591613,2.01036334,5
-9.51245117,-1.86326351,2.09862303,5
-9.55167675,-1.72597036,2.18688297,6
-9.66935729,-1.85345687,2.19668960,6
-9.64974403,-2.09862303,2.42224264,5
-9.76742362,-2.16726970,2.57914900,5
-9.83607006,-2.40262937,2.76547551,6
-9.98316955,-2.49088931,3.04986810,5
-10.02239608,-2.51050257,3.35387444,5
-10.12046241,-2.53992247,3.64807391,5
-10.24794864,-2.49088931,3.80498027,5
-10.22833633,-2.43204927,3.84420680,7
-10.24794864,-2.49088931,3.91285324,5
-10.22833633,-2.56934237,3.93246669,5
-10.29698181,-2.66740894,3.97169322,6
-10.38524246,-2.68702197,4.02072668,5
-10.48330879,-2.58895564,4.13840627,5
-10.59118270,-2.38301610,4.30511951,5
-10.80692863,-2.21630287,4.34434604,6
-10.89518737,-2.01036334,4.49144601,6
-10.99325561,-1.99074993,4.92293834,5
-11.21880817,-1.89268350,5.01119804,5
-11.35610103,-1.93191003,5.40346431,6
-11.49339485,-2.04958987,6.11934995,5
-11.65030002,-2.22610950,6.23702907,5
-11.72875308,-2.25552964,6.30567598,5
-11.61107349,-2.04958987,6.53122901,6
-11.56204032,-1.66713056,6.39393615,6
-11.36590766,-1.14737808,6.46258211,5
-11.49339485,-0.82375860,6.51161527,5
-11.38552093,-0.73549880,6.31548261,6
-11.24822711,-0.56878566,6.15857648,5
-10.95402812,-0.38245937,5.92321634,5
-10.72847557,-0.05883990,5.79573059,6
-10.65002155,0.24516625,5.64863014,5
-10.47350215,0.34323275,5.92321634,6
-10.54214954,0.32361946,5.85457038,5
-10.34601497,0.18632633,6.41354894,6
-10.19891548,-0.04903325,6.66852235,5
-10.12046241,0.07845321,6.45277595,5
-9.83607006,0.15690641,6.97252845,5
-9.54187011,0.43149261,7.04117488,6
-9.19863796,0.57859234,6.91368818,5
-8.62004566,0.72569208,6.14876937,6
-8.34545898,0.57859234,5.07003831,5
-7.60996055,0.50013918,4.82487201,5
-6.94310855,0.15690641,4.10898637,6
-6.50180912,-0.42168598,2.89296169,5
-6.14876937,-0.93163175,2.07900977,5
-6.04089641,-1.10815143,2.00055670,5
-6.32528924,-1.03950488,2.92238187,5
-7.05098152,-0.86298522,3.28522777,7
-7.87473964,-0.78453202,4.11879301,5
-8.17874622,-1.00027835,5.20733118,5
-8.62004566,-1.13757133,5.46230411,5
-8.73772525,-1.47099757,5.46230411,6
-8.62004566,-1.69655036,5.32501077,5
-8.19835948,-1.80442371,4.69738531,5
-8.00222682,-1.84365024,3.56962060,5
-7.44324731,-1.85345687,2.45166254,6
-7.01175451,-1.50041747,1.78481030,6
-6.75678205,-1.06892478,0.72569208,5
-6.77639532,-0.73549880,-0.07845321,5
-6.74697542,-0.42168598,-0.25497291,5
-6.85484838,-0.34323275,-0.49033250,6
-7.41382741,-0.36284604,-0.44129929,5
-7.80609369,-0.42168598,0.13729310,5
-8.40429878,-0.43149261,1.00027835,6
-8.63965892,-0.39226600,2.24572300,5
-9.04173183,-0.41187930,3.11851453,6
-9.25747776,-0.61781892,3.60884737,5
-9.01231193,-1.01008498,4.38357257,5
-8.79656505,-1.52003073,4.35415267,5
-8.24739265,-1.71616373,3.92266006,5
-7.67860698,-2.02016997,3.14793491,6
-7.07059478,-2.10842990,2.71644210,6
-6.73716831,-2.02997660,1.67693719,5
-6.51161527,-1.99074993,1.08853816,5
-6.31548261,-2.04958987,1.15718472,6
-6.33509635,-2.24572300,1.40235099,5
-6.83523559,-2.40262937,1.22583127,5
-7.25692129,-2.39282274,1.85345687,5
-7.66880035,-2.34378933,2.44185590,5
-8.24739265,-2.27514266,3.03025484,7
-9.13979816,-2.03978323,2.83412189,5
-9.46341705,-1.44157752,3.09890151,5
-9.80665016,-0.76491875,2.65760207,5
-9.79684352,-0.19613300,1.92210340,6
-9.66935729,0.02941995,1.11795806,5
-9.24767112,0.15690641,0.93163175,5
-9.11037826,0.17651968,0.63743219,5
-9.05153751,-0.20593965,1.39254438,6
-9.15941143,-0.50994582,2.29475617,6
-9.39477062,-1.39254438,3.53039431,5
-9.76742362,-2.43204927,4.10898637,5
-10.13027000,-3.36368083,5.16810464,5
-10.24794864,-4.06975984,5.65843725,6
-10.22833633,-4.37376594,5.26617097,5
-9.95374965,-4.68757867,4.27569913,5
-9.36535072,-4.79545164,3.57942748,6
-8.57101249,-4.61893224,1.98094348,6
-8.07087326,-4.24627971,0.42168598,5
-7.04117488,-4.02072668,-1.43177089,5
-6.15857648,-3.59904074,-2.36340260,5
-5.19752407,-3.24600124,-3.78536701,5
-4.36395931,-2.87334871,-4.81506538,6
-4.11879301,-2.31436944,-5.53095102,5
-3.50097393,-1.95152339,-5.42307710,6
-3.29503440,-1.27486443,-4.90332508,5
-3.85401363,-1.22583127,-3.49116754,6
-4.84448528,-1.33370447,-2.05939650,5
-5.07984495,-1.18660461,0.85317859,5
-6.23702907,-0.96105175,3.61865377,5
-7.34518098,-0.54917240,4.80525875,6
-8.52197933,-1.02969825,6.99214172,5
-9.17902469,-2.51050257,9.39477062,6
-9.52225780,-4.67777204,11.56204032,5
-10.03220272,-5.69766330,13.48414421,5
-10.02239608,-7.32556724,14.29809570,6
-9.70858383,-8.25719928,15.83773994,5
-9.34573745,-9.01231193,16.85763168,5
-9.09076499,-10.14007663,16.92627716,6
-8.79656505,-10.79712104,15.88677310,5
-8.45333194,-12.12101936,15.25914764,6
-8.21797275,-12.65057849,12.73883914,6
-7.60015344,-11.83662700,9.81645679,5
-7.23730754,-9.46341705,6.82542848,5
-6.56064939,-7.76686668,3.43232750,5
-5.88399028,-4.11879301,0.56878566,6
-5.53095102,-1.12776482,-0.39226600,5
-5.57998418,0.58839898,-2.14765644,5
-5.64863014,0.82375860,-3.77556014,6
-5.88399028,0.70607876,-4.66796541,5
-6.46258211,0.27458620,-4.70719194,6
-7.18827438,-0.11767981,-3.96188688,5
-8.13951969,-0.49033250,-2.03978323,5
-8.77695178,-1.10815143,0.13729310,5
-9.97336292,-1.52983751,2.49088931,5
-11.13054752,-2.28494954,3.65788054,6
-12.04256725,-2.97141504,5.88399028,6
-12.65057849,-3.33426117,7.53150749,5
-12.62115859,-3.38329434,8.90443801,6
-12.38579940,-3.40290760,8.84559822,5
-11.40513420,-3.33426117,8.79656505,5
-10.58137512,-3.55000734,7.60996055,5
-9.33593082,-3.58923387,5.95263671,6
-8.80637168,-3.60884737,4.64835214,5
-7.91396665,-3.63826704,3.79517364,6
-7.54131412,-3.73633384,3.50097393,5
-7.60015344,-3.91285324,3.02044820,6
-8.02184009,-4.12859964,3.25580763,5
-8.36507225,-3.89324016,4.10898637,5
-9.20844459,-3.60884737,5.19752407,5
-9.96355724,-2.64779567,5.73689031,5
-10.41466236,-1.46119093,6.52142238,7
-10.45388889,-0.54917240,6.94310855,5
-10.39504814,-0.01961330,7.14904785,5
-9.89490985,0.11767981,6.77639532,5
-9.12999153,0.01961330,6.22722291,6
-7.89435338,-0.27458620,5.80553674,5
-7.42363452,-0.77472538,5.06023120,5
-6.73716831,-1.55925726,5.11907148,5
-6.34490299,-2.04958987,5.25636482,5
-6.21741628,-2.92238187,5.39365768,5
-6.37432241,-3.61865377,6.11934995,5
-6.55084228,-3.88343334,7.22750091,5
-6.95291471,-3.85401363,8.23758602,5
-7.34518098,-3.48136067,9.05153751,6
-7.64918661,-2.90276832,9.36535072,5
-7.84532022,-2.30456280,9.66935729,5
-7.83551359,-1.72597036,9.49283695,5
-7.77667331,-1.51022410,8.87501811,7
-7.51189374,-1.23563790,8.38468647,5
-7.23730754,-1.03950488,7.11962795,5
-6.82542848,-0.66685223,5.72708368,5
-6.60968255,-0.02941995,4.64835214,5
-6.16838312,0.17651968,4.10898637,6
-6.04089641,0.69627218,4.10898637,5
-6.15857648,0.88259859,4.27569913,6
-6.52142238,0.62762565,5.12887811,5
-6.75678205,0.06864655,6.42335557,6
-7.36479425,-0.19613300,8.03164672,5
-7.81590032,-0.88259859,8.91424465,5
-8.50236511,-1.53964414,9.70858383,5
-8.61023902,-1.89268350,10.86576843,5
-8.89463138,-1.94171667,11.22861385,6
-8.76714515,-1.81423034,11.03248119,6
-8.52197933,-1.33370447,10.82654190,5
-8.02184009,-0.76491875,10.02239608,5
-7.74725389,-0.49033250,8.78675842,6
-7.11962795,-0.59820566,7.40402078,5
-6.51161527,-0.63743219,6.00166988,5
-6.02128362,-0.69627218,5.46230411,5
-5.60940408,-0.53936576,4.64835214,6
-5.45249748,-0.42168598,4.21685981,6
-5.47211122,-0.40207266,4.23647308,5
-5.67805051,-0.46091256,4.37376594,5
-5.95263671,-0.76491875,5.10926485,5
-6.35470914,-0.99047174,6.24683618,6
-6.56064939,-1.13757133,7.58054065,5
-7.01175451,-1.21602463,8.47294616,5
-7.30595445,-1.41215753,9.12999153,5
-7.60996055,-1.63771057,9.58109760,7
-7.65899372,-1.86326351,9.89490985,5
-7.68841361,-1.79461693,9.43399715,5
-7.40402078,-1.61809730,8.92405223,5
-6.93330192,-1.14737808,8.48275279,5
-6.40374231,-0.62762565,7.61976718,6
-6.18799591,-0.36284604,6.59987545,5
-5.86437654,-0.36284604,5.81534337,5
-5.65843725,-0.39226600,5.50153064,6
-5.54075717,-0.54917240,5.55056381,6
-5.60940408,-0.62762565,5.84476375,5
-5.78592348,-0.76491875,6.35470914,5
-6.17818975,-0.87279186,7.22750091,5
-6.54103565,-1.05911827,8.22777938,5
-6.86465501,-1.20621800,8.75733852,6
-7.26672792,-1.31409120,9.08095836,5
-7.23730754,-1.34351098,9.86549091,6
-7.45305395,-1.28467119,10.13027000,5
-7.47266769,-1.23563790,10.09104347,6
-7.35498762,-1.19641137,9.78703689,5
-7.24711465,-1.01008498,9.33593082,5
-7.10001468,-0.76491875,8.72791862,5
-6.87446165,-0.53936576,8.04145336,5
-6.51161527,-0.13729310,7.71783351,6
-6.10954332,0.12748645,7.20788812,6
-5.94283008,0.10787315,6.91368818,5
-5.71727705,-0.18632633,7.23730754,5
-5.65843725,-0.37265267,7.39421415,6
-5.73689031,-1.00027835,7.77667331,5
-5.82515001,-1.54945077,9.07115173,5
-5.98205661,-2.11823654,10.33620929,5
-5.95263671,-2.71644210,11.59146118,5
-6.61948919,-2.97141504,12.81729221,6
-7.18827438,-3.73633384,13.18994522,5
-7.73744678,-4.36395931,13.85679626,5
-8.60043239,-4.52086591,14.08234977,6
-8.79656505,-3.86382007,14.42558193,5
-9.14960479,-3.27542114,13.95486259,5
-9.52225780,-1.58867731,13.38607788,5
-9.20844459,-0.48052587,12.79767799,6
-8.78675842,-0.10787315,12.08179283,6
-8.32584571,-0.76491875,11.77778625,5
-7.49228048,-1.49061069,12.17985916,5
-7.21769475,-3.40290760,12.69961166,6
-7.68841361,-5.29559135,14.03331661,5
-8.13951969,-6.88426876,16.32807159,5
-8.87501811,-8.00222682,18.08346366,6
-9.94394397,-8.43371963,19.92711448,5
-11.43455410,-8.56120586,20.79009628,6
-12.43483257,-7.23730754,20.79990577,5
-12.94477844,-4.40318584,20.59396362,6
-13.06245803,-1.26505780,18.56398963,5
-12.73883914,0.88259859,15.81812667,5
-12.15043926,1.27486443,12.99381160,6
-11.42474746,1.33370447,11.30706787,5
-10.73828220,1.01989161,8.62004566,5
-10.55195522,0.98066501,7.69822072,6
-10.88538169,0.50013918,7.24711465,6
-11.28745460,-0.07845321,8.28662014,5
-11.78759384,-1.91229667,8.60043239,5
-12.38579940,-3.96188688,9.39477062,5
-12.83690547,-5.02100515,9.53206443,6
-12.78787231,-4.64835214,9.39477062,5
-12.13082599,-3.98149986,7.98261356,5
-10.77750873,-2.34378933,6.76658868,7
-8.93385887,-1.01989161,3.44213438,5
-6.98233509,-0.58839898,-0.28439283,5
-6.00166988,-1.10815143,-3.94227333,5
-4.17763280,-1.56906404,-7.07059478,6
-3.04986810,-2.47127580,-8.57101249,5
-2.64779567,-3.18716120,-10.71866893,5
-2.58895564,-3.49116754,-11.29726028,5
-2.45166254,-3.43232750,-9.53206443,7
-3.09890151,-3.20677447,-7.80609369,5
-4.41299247,-2.53992247,-6.60968255,5
-5.99186325,-1.80442371,-3.58923387,5
-7.35498762,-1.38273775,-0.77472538,5
-7.98261356,-1.34351098,1.49061069,6
-8.79656505,-1.37293100,3.22638797,5
-9.35554409,-1.44157752,3.63826704,5
-9.39477062,-1.57887067,4.18743944,6
-9.30651092,-1.65732383,4.33453941,6
-8.75733852,-1.64751720,3.76575374,5
-7.68841361,-1.56906404,3.29503440,5
-6.68813514,-1.48080406,2.63798880,5
-5.27597761,-1.30428445,2.14765644,5
-4.64835214,-1.12776482,1.14737808,6
-3.73633384,-1.21602463,0.53936576,5
-3.20677447,-1.63771057,-0.00980665,6
-2.78508877,-2.44185590,-0.09806651,5
-2.53992247,-3.43232750,0.00980665,6
-2.62818241,-4.06975984,0.29419948,5
-2.78508877,-4.25608587,0.60801229,5
-3.04006147,-4.21685981,0.60801229,5
-3.41271424,-3.85401363,0.46091256,5
-3.99130678,-3.34406757,0.19613300,6
-4.29531288,-2.65760207,-0.03922660,6
-5.00139141,-2.18688297,0.26477956,5
-5.84476375,-1.11795806,0.74530534,5
-6.73716831,-0.15690641,1.97113666,5
-7.23730754,0.39226600,3.23619461,6
-7.91396665,0.41187930,4.72680521,5
-8.18855285,0.39226600,5.85457038,5
-8.33565330,0.21574630,6.31548261,5
-8.39449214,0.01961330,6.90388154,6
-8.40429878,-0.25497291,7.10982179,5
-8.32584571,-0.44129929,7.16866111,5
-8.08067989,-0.99047174,7.21769475,5
-7.72764015,-1.53964414,6.52142238,5
-7.20788812,-1.88287687,5.79573059,6
-7.24711465,-1.85345687,4.61893224,5
-6.57045555,-1.71616373,3.52058744,5
-6.15857648,-1.25525128,3.32445430,6
-5.65843725,-0.86298522,3.06948137,6
-5.37404394,-0.82375860,2.48108243,5
-5.26617097,-0.74530534,1.32389783,5
-5.30539798,-0.56878566,0.52955913,5
-4.96216487,-0.26477956,0.83356533,5
-5.29559135,0.16671305,0.78453202,6
-5.44269084,0.21574630,1.27486443,5
-5.90360355,-0.25497291,2.24572300,6
-6.47238922,-0.51975245,3.38329434,5
-6.97252845,-1.02969825,3.95207996,5
-7.44324731,-1.33370447,4.88371181,6
-7.56092739,-1.34351098,5.56037044,5
-7.81590032,-1.34351098,5.99186325,5
-7.89435338,-1.53964414,5.98205661,5
-7.82570648,-1.74558377,5.53095102,6
-7.72764015,-1.93191003,4.86409854,6
-7.60015344,-1.67693719,3.87362689,5
-7.55112028,-1.57887067,3.39310073,5
-7.14904785,-1.34351098,3.23619461,5
-7.06078863,-1.30428445,2.74586200,6
-7.00194787,-1.45138416,2.25552964,5
-6.95291471,-1.70635709,2.13784956,5
-6.98233509,-1.80442371,2.14765644,5
-7.17846775,-1.75539040,2.22610950,7
-7.37460088,-1.64751720,2.65760207,5
-7.49228048,-1.56906404,2.80470199,5
-7.71783351,-1.47099757,3.04986810,5
-7.80609369,-1.44157752,2.97141504,5
-7.74725389,-1.30428445,3.38329434,6
-7.85512685,-1.28467119,3.73633384,5
-7.88454675,-1.55925726,3.91285324,5
-8.05125999,-1.74558377,3.95207996,6
-8.13951969,-1.99074993,4.03053331,6
-8.22777938,-1.99074993,3.88343334,5
-8.28662014,-1.63771057,3.56962060,5
-8.32584571,-1.12776482,3.36368083,5
-8.24739265,-0.81395187,3.24600124,5
-8.11990642,-0.42168598,3.15774130,6
-7.96299982,-0.22555296,2.91257495,5
-7.74725389,-0.30400614,2.75566864,6
-7.44324731,-0.65704560,2.84392852,5
-7.15885496,-0.82375860,2.72624874,5
-6.76658868,-1.06892478,2.73605561,6
-6.31548261,-1.29447782,2.57914900,5
-5.79573059,-1.30428445,2.35359597,5
-5.57017755,-1.18660461,2.08881640,5
-5.22694444,-1.13757133,1.58867731,6
-5.19752407,-0.86298522,1.11795806,6
-4.71699857,-0.58839898,1.36312437,5
-4.77583837,-0.02941995,1.06892478,5
-4.58951234,0.20593965,1.26505780,5
-4.58951234,0.57859234,1.33370447,6
-4.36395931,0.61781892,1.43177089,5
-4.46202611,0.27458620,1.10815143,5
-4.45221900,-0.08825984,1.00027835,5
-4.30511951,-0.06864655,0.96105175,6
-4.45221900,0.22555296,0.62762565,5
-4.30511951,0.78453202,0.63743219,5
-4.08937311,1.51022410,0.74530534,5
-3.89324016,2.01036334,0.77472538,5
-3.45194077,2.10842990,0.73549880,6
-2.80470199,2.02016997,0.62762565,5
-1.98094348,1.60829067,0.50994582,5
-1.52983751,0.86298522,0.15690641,6
-0.62762565,0.47071924,-0.31381282,5
0.18632633,-0.25497291,-0.72569208,6
0.98066501,-0.94143848,-1.43177089,5
1.95152339,-1.56906404,-1.62790384,5
2.26533627,-1.57887067,-1.02969825,5
2.18688297,-1.27486443,1.33370447,5
1.78481030,0.00980665,3.18716120,6
0.97085838,1.33370447,7.85512685,6
-0.89240512,1.63771057,12.08179283,5
-1.94171667,0.51975245,15.54354095,5
-4.17763280,-0.50994582,18.01481628,5
-6.49200248,-3.04006147,18.84838294,6
-8.43371963,-5.22694444,19.72117233,5
-9.71839046,-6.26644945,19.85846710,5
-10.14007663,-6.07031679,18.58360099,7
-10.29698181,-5.55056381,16.98511886,5
-9.31631755,-3.97169322,15.68083381,5
-7.93357992,-2.07900977,12.45444583,5
-6.44296932,-0.46091256,8.88482475,6
-5.77611684,0.48052587,5.52114439,5
-4.51105928,0.71588544,2.82431507,5
-3.42252087,0.60801229,1.71616373,5
-2.38301610,0.26477956,0.74530534,7
-1.81423034,-0.36284604,0.40207266,5
-1.81423034,-1.13757133,0.67665886,5
-1.93191003,-1.39254438,1.86326351,5
-2.12804293,-1.95152339,2.65760207,5
-2.82431507,-2.45166254,4.80525875,6
-3.44213438,-3.00083494,6.73716831,5
-4.71699857,-3.24600124,9.91452407,5
-6.65871572,-3.28522777,12.24850559,5
-8.19835948,-3.02044820,13.56259727,7
-9.85568332,-2.22610950,15.25914764,5
-10.46369647,-1.23563790,16.53401184,5
-11.35610103,-0.50013918,16.43594551,5
-11.32668018,-0.20593965,14.76881599,6
-10.28717613,-0.19613300,13.49395084,5
-8.33565330,-0.51975245,10.18910980,5
-6.02128362,-0.92182512,6.35470914,7
-4.85429191,-1.28467119,2.96160812,5
-2.65760207,-1.51022410,-0.61781892,5
-0.74530534,-1.77500367,-1.96133003,5
0.67665886,-1.65732383,-4.03053331,5
1.66713056,-1.14737808,-4.56009244,6
2.15746307,-0.45110592,-3.05967497,5
1.99074993,-0.13729310,-1.20621800,5
1.26505780,0.57859234,0.54917240,6
-0.20593965,1.53964414,4.06975984,5
-0.94143848,2.41243600,8.55139827,6
-2.52030897,2.60856890,13.10168457,5
-4.11879301,2.44185590,15.30818080,5
-5.48191738,1.57887067,19.04451560,5
-6.58026218,0.50013918,21.72172927,6
-7.01175451,-0.66685223,22.95736885,5
-7.09020805,-1.15718472,22.58471488,6
-6.06050968,-2.07900977,21.87863540,5
-4.14821290,-2.68702197,19.46619987,6
-2.39282274,-2.68702197,15.55334663,5
-1.26505780,-2.00055670,12.00333976,5
0.71588544,-1.58867731,9.48303031,5
2.58895564,-0.73549880,8.77695178,6
3.78536701,-0.10787315,7.81590032,5
4.49144601,0.08825984,8.38468647,6
4.48163890,-0.41187930,9.50264358,5
4.49144601,-0.77472538,11.82681941,5
3.65788054,-1.55925726,12.81729221,6
2.71644210,-2.25552964,15.24934005,5
1.73577713,-2.53992247,16.86743927,5
1.23563790,-2.55953574,17.47545051,5
0.64723892,-2.53011560,17.33815765,6
0.50013918,-2.25552964,16.77917861,6
1.01008498,-1.58867731,14.93552780,5
1.80442371,-0.49033250,12.27792549,5
2.28494954,0.75511207,9.79684352,6
3.09890151,1.32389783,7.51189374,5
3.46174740,2.04958987,6.48219585,5
3.23619461,2.36340260,5.02100515,5
2.78508877,2.16726970,5.44269084,6
2.30456280,1.60829067,7.64918661,6
1.01989161,1.27486443,10.72847557,5
-0.53936576,0.67665886,12.52309131,5
-2.33398270,0.26477956,16.02406501,5
-3.12832140,0.04903325,19.15238761,6
-4.57970571,0.22555296,21.36869049,5
-5.43288421,0.34323275,22.26109504,5
-5.31520414,0.96105175,22.32974243,5
-4.13840627,1.94171667,21.43733787,7
-3.10870814,2.86354179,18.81896209,5
-0.76491875,3.53039431,15.19050121,5
1.55925726,3.66768717,10.58137512,5
3.18716120,3.81478691,8.34545898,6
4.02072668,3.71672058,3.65788054,5
4.17763280,3.84420680,0.94143848,5
4.57970571,4.14821290,0.63743219,5
4.43260574,5.19752407,2.84392852,7
3.49116754,6.53122901,4.32473278,5
1.81423034,6.89407491,9.13979816,5
0.80414533,6.07031679,14.44519615,5
-1.51022410,5.30539798,19.03470802,5
-3.72652697,3.35387444,20.92739295,6
-5.46230411,1.81423034,24.24203872,5
-6.76658868,1.20621800,25.36980247,5
-6.86465501,1.67693719,25.62477684,6
-6.43316268,2.19668960,23.71248054,6
-4.73661231,3.55981397,22.21206283,5
-2.20649623,4.66796541,18.67186164,5
0.37265267,5.32501077,14.54326248,6
1.54945077,5.36423778,10.24794864,5
3.41271424,5.18771791,6.52142238,5
4.63854551,4.74641847,4.08937311,5
5.42307710,4.16782665,3.14793491,6
5.61921072,3.69710707,1.95152339,6
5.54075717,3.51078081,2.50069570,5
5.36423778,3.45194077,3.60884737,5
4.49144601,3.50097393,4.77583837,5
3.12832140,3.46174740,7.35498762,6
1.68674383,3.29503440,10.59118270,5
0.90221185,3.01064181,13.19975090,5
-0.54917240,2.94199514,15.11204814,6
-1.58867731,2.81450862,15.62199401,5
-1.92210340,3.06948137,15.93580627,6
-1.50041747,3.63826704,15.34740829,5
-1.11795806,4.19724607,13.57240295,5
0.16671305,4.55028533,10.96383476,6
1.55925726,4.96216487,9.68897056,5
2.93218822,5.18771791,7.43344116,5
3.86382007,5.21713781,5.57017755,6
4.10898637,5.01119804,5.02100515,5
4.56989908,4.79545164,5.41327095,6
4.32473278,4.08937311,5.68785715,5
3.84420680,3.32445430,7.08040142,5
3.42252087,2.42224264,8.55139827,5
2.69682884,1.82403697,9.97336292,5
1.91229667,1.69655036,11.04228878,6
1.36312437,1.78481030,11.35610103,6
1.05911827,2.30456280,11.50320053,5
0.98066501,2.94199514,10.98344802,5
1.11795806,3.26561450,10.11065673,6
1.56906404,3.76575374,9.22805786,5
1.88287687,4.08937311,8.54159259,5
2.28494954,4.16782665,7.62957382,5
2.44185590,4.07956647,6.44296932,6
2.48108243,4.00111341,6.00166988,6
1.93191003,3.74614024,5.54075717,5
1.49061069,3.58923387,6.36451578,5
0.46091256,3.52058744,7.14904785,5
-0.10787315,3.59904074,8.66907882,6
-1.30428445,3.60884737,9.90471649,5
-2.71644210,3.51078081,10.46369647,5
-3.96188688,3.28522777,11.66991424,5
-5.25636482,2.96160812,12.89574527,7
-5.93302345,3.10870814,13.71950435,5
-6.89407491,3.36368083,14.69036197,5
-7.89435338,3.82459335,15.01398181,5
-8.88482475,4.05014657,15.80832004,6
-9.71839046,3.70691370,16.85763168,5
-10.23814296,2.87334871,17.72061729,5
-11.07170772,2.47127580,19.13277435,5
-11.93469333,2.01036334,19.93692016,7
-12.78787231,1.93191003,20.86855125,5
-13.28801155,2.04958987,20.92739295,5
-13.61163043,1.92210340,19.96633911,6
-13.90582942,1.77500367,19.58387947,5
-13.85679626,1.62790384,18.83857536,5
-13.18013763,1.72597036,18.12269020,6
-12.62115859,1.90249013,16.49478530,5
-11.89546680,2.12804293,14.13138294,6
-11.49339485,1.82403697,11.35610103,5
-11.31687450,1.49061069,8.29642581,6
-11.14035511,0.41187930,7.25692129,5
-11.45416736,-0.17651968,5.13868474,5
-11.46397399,-0.15690641,4.18743944,6
-11.57184696,-0.25497291,3.49116754,5
-11.80720710,-0.60801229,4.19724607,5
-11.76798057,-2.25552964,4.83467864,6
-11.86604690,-4.82487201,6.27625608,6
-11.99353408,-7.66880035,7.64918661,5
-12.11121273,-10.34601497,9.06134510,5
-12.00333976,-11.34629344,9.46341705,5
-11.64049434,-12.37599182,9.33593082,6
-11.11093521,-11.98372650,8.67888545,5
-10.10084915,-10.09104347,7.20788812,6
-8.62985229,-7.14904785,4.44241237,6
-7.66880035,-4.41299247,1.85345687,5
-5.69766330,-3.44213438,-0.56878566,5
-3.64807391,-2.37320923,-1.66713056,5
-2.04958987,-2.47127580,-3.30484127,6
-1.39254438,-3.46174740,-4.26589298,5
-0.80414533,-4.90332508,-4.12859964,5
-0.32361946,-5.55056381,-3.09890151,6
-0.79433865,-6.47238922,-2.10842990,5
-1.35331773,-6.19780302,1.25525128,6
-1.72597036,-4.82487201,3.96188688,5
-2.06920313,-3.85401363,5.43288421,5
-2.37320923,-2.07900977,6.62929534,5
-1.85345687,-0.85317859,7.14904785,6
-0.77472538,-0.49033250,7.80609369,5
-0.31381282,-0.83356533,7.55112028,6
0.69627218,-1.08853816,7.79628705,5
1.17679798,-1.76519718,8.07087326,5
1.57887067,-2.58895564,9.14960479,6
1.69655036,-3.71672058,10.14988231,5
1.72597036,-5.04061794,11.18938827,5
1.44157752,-5.64863014,11.79739952,5
1.02969825,-6.38412952,11.86604690,6
0.50013918,-5.94283008,11.82681941,6
-0.27458620,-4.38357257,11.89546680,5
-0.79433865,-2.32417607,11.99353408,5
-2.38301610,-1.41215753,12.93497180,6
-4.34434604,-0.24516625,13.70969676,5
-6.46258211,-0.15690641,15.86715984,5
-8.35526561,-0.56878566,17.51467704,5
-9.10057067,-0.51975245,18.88760757,6
-10.18910980,-0.15690641,18.97586822,6
-10.62060165,1.32389783,18.46592330,5
-9.99297714,3.04006147,16.89685821,5
-9.12018489,4.48163890,14.30790233,6
-8.51217174,5.32501077,11.44436168,5
-7.37460088,5.60940408,8.69849872,5
-6.20760965,5.83495712,7.47266769,5
-4.96216487,5.60940408,5.24655818,6
-3.95207996,4.92293834,2.91257495,6
-3.14793491,3.81478691,2.08881640,5
-2.03978323,3.37348771,1.01989161,5
-0.90221185,2.69682884,1.10815143,6
-0.24516625,2.40262937,1.71616373,5
0.17651968,1.80442371,3.43232750,5
0.08825984,0.51975245,5.33481788,5
-0.27458620,-0.19613300,7.61976718,5
-1.01989161,-1.32389783,8.95347118,7
-1.95152339,-1.80442371,11.19919395,5
-2.42224264,-1.47099757,13.18013763,5
-3.16754817,-0.89240512,14.15099620,5
-3.70691370,-0.62762565,13.95486259,6
-3.68730044,-0.17651968,13.52336978,5
-3.22638797,0.24516625,12.31715297,5
-2.88315505,0.63743219,10.93441486,5
-2.13784956,0.88259859,9.51245117,7
-1.48080406,1.02969825,8.35526561,5
-0.86298522,1.27486443,7.75706052,5
-0.27458620,1.43177089,7.07059478,5
-0.21574630,1.50041747,6.93330192,5
-0.18632633,1.42196426,8.20816612,6
-0.68646550,0.98066501,8.92405223,5
-1.53964414,-0.10787315,10.75789546,5
-2.45166254,-1.55925726,12.42502498,6
-2.88315505,-2.89296169,13.23897838,6
-3.61865377,-3.28522777,13.50375747,5
-4.14821290,-3.55000734,13.38607788,5
-4.30511951,-3.10870814,12.75845146,5
-4.26589298,-2.37320923,11.66991424,6
-4.19724607,-1.70635709,10.32640266,5
-3.80498027,-1.37293100,9.47322463,5
-3.47155427,-0.97085838,9.18883132,6
-3.16754817,-0.90221185,8.61023902,6
-2.92238187,-1.27486443,8.30623245,5
-2.86354179,-2.02016997,8.33565330,5
-2.80470199,-2.37320923,8.46313858,5
-2.88315505,-2.73605561,8.49255943,6
-2.93218822,-2.99102830,8.70830535,5
-3.01064181,-3.24600124,9.18883132,5
-3.04006147,-3.58923387,9.75761699,6
-3.09890151,-3.76575374,9.99297714,5
-3.05967497,-4.16782665,10.25775623,6
-3.27542114,-4.58951234,10.33620929,5
-3.34406757,-4.77583837,10.37543582,5
-3.43232750,-4.74641847,9.91452407,5
-3.48136067,-4.55028533,9.02211856,6
-3.39310073,-4.08937311,8.60043239,5
-3.47155427,-3.68730044,7.83551359,6
