capture duration,Gyroscope X (rad/s),Gyroscope Y (rad/s),Gyroscope Z (rad/s),Accelerometer X (m/s²),Accelerometer Y (m/s²),Accelerometer Z (m/s²),Magnetometer X (mT),Magnetometer Y (mT),Magnetometer Z (mT)
0,0.01745329,0.05235988,0.00000000,0.59820566,1.19641137,9.50264358,0.00100000,-0.00600000,0.00200000
1,-0.03490658,0.00000000,0.00000000,0.58839898,1.13757133,9.29670429,0.00200000,-0.00800000,-0.00100000
2,0.03490658,-0.12217305,0.08726646,0.54917240,1.14737808,9.42419147,0.00200000,-0.00700000,0.00100000
3,0.00000000,-0.13962633,0.03490658,0.27458620,1.47099757,9.72819709,0.00200000,-0.00600000,0.00200000
4,-0.05235988,-0.01745329,-0.05235988,0.20593965,1.34351098,10.01259040,0.00200000,-0.00600000,0.00100000
5,-0.05235988,0.06981317,-0.01745329,0.17651968,1.11795806,9.86549091,0.00400000,-0.00800000,0.00100000
6,-0.03490658,0.03490658,0.03490658,0.41187930,1.22583127,9.63993644,0.00300000,-0.00900000,0.00200000
7,-0.06981317,-0.01745329,0.00000000,0.48052587,1.35331773,9.61051750,0.00300000,-0.00700000,0.00200000
8,-0.03490658,-0.01745329,-0.01745329,0.31381282,1.39254438,9.76742362,0.00300000,-0.00800000,0.00000000
9,-0.08726646,0.05235988,-0.06981317,0.21574630,1.28467119,9.81645679,0.00200000,-0.00700000,0.00200000
10,-0.08726646,0.08726646,-0.05235988,0.31381282,1.08853816,9.60070991,0.00300000,-0.00800000,0.00100000
11,-0.10471976,0.06981317,-0.01745329,0.49033250,1.12776482,9.60070991,0.00300000,-0.00800000,-0.00100000
12,-0.01745329,-0.01745329,0.05235988,0.59820566,1.23563790,9.32612419,0.00300000,-0.00800000,0.00000000
13,-0.06981317,-0.06981317,-0.03490658,0.51975245,1.34351098,9.53206443,0.00400000,-0.00700000,0.00000000
14,-0.05235988,-0.06981317,-0.03490658,0.49033250,1.21602463,9.77723026,0.00300000,-0.00600000,0.00000000
15,-0.08726646,0.00000000,-0.05235988,0.37265267,1.22583127,9.93413639,0.00200000,-0.00800000,0.00200000
16,-0.10471976,0.10471976,-0.05235988,0.41187930,1.07873153,9.84587669,0.00300000,-0.00800000,0.00100000
17,-0.05235988,0.10471976,0.01745329,0.52955913,1.01989161,9.47322463,0.00300000,-0.00800000,0.00100000
18,-0.03490658,0.00000000,0.06981317,0.47071924,1.06892478,9.32612419,0.00100000,-0.00700000,0.00100000
19,0.00000000,-0.06981317,0.05235988,0.19613300,1.34351098,9.55167675,0.00100000,-0.00700000,0.00000000
20,0.00000000,0.03490658,0.03490658,-0.23535962,1.15718472,9.96355724,0.00200000,-0.00600000,0.00200000
21,0.01745329,0.24434609,0.06981317,-0.60801229,1.08853816,10.08123588,0.00400000,-0.00600000,0.00100000
22,-0.03490658,0.38397243,0.01745329,-0.40207266,1.26505780,9.89490985,0.00300000,-0.00700000,0.00200000
23,-0.03490658,0.40142574,0.13962633,-0.38245937,0.93163175,9.74781036,0.00400000,-0.00600000,0.00100000
24,0.10471976,0.33161256,0.22689280,-0.27458620,1.35331773,9.65955066,0.00400000,-0.00600000,0.00200000
25,-0.03490658,0.29670596,0.13962633,-0.51975245,1.57887067,9.63013076,0.00400000,-0.00700000,0.00200000
26,0.03490658,0.27925267,0.10471976,-0.61781892,1.49061069,10.06162357,0.00400000,-0.00700000,0.00200000
27,-0.13962633,0.29670596,0.05235988,-0.70607876,1.09834480,10.17930316,0.00400000,-0.00700000,0.00300000
28,-0.08726646,0.26179938,0.36651916,-1.10815143,0.84337196,10.16949558,0.00400000,-0.00700000,0.00200000
29,-0.08726646,0.33161256,0.31415927,-1.07873153,1.74558377,10.37543582,0.00300000,-0.00600000,0.00000000
30,-0.26179938,0.34906582,0.20943951,-1.31409120,1.61809730,10.60098838,0.00600000,-0.00600000,0.00300000
31,-0.13962633,0.48869218,0.26179938,-1.52983751,1.39254438,10.65982913,0.00400000,-0.00700000,0.00100000
32,-0.20943951,0.61086521,0.22689280,-1.67693719,1.26505780,10.59118270,0.00400000,-0.00800000,0.00200000
33,-0.27925267,0.69813165,0.17453291,-1.83384361,1.12776482,10.18910980,0.00400000,-0.00600000,0.00300000
34,-0.38397243,0.76794486,0.08726646,-1.87307014,0.86298522,9.52225780,0.00600000,-0.00700000,0.00400000
35,-0.29670596,0.80285148,0.19198621,-1.52003073,0.53936576,9.27709102,0.00700000,-0.00700000,0.00500000
36,-0.47123889,0.61086521,0.05235988,-1.23563790,0.61781892,8.25719928,0.00600000,-0.00700000,0.00400000
37,-0.43633232,0.17453291,0.19198621,-0.79433865,0.35303938,7.83551359,0.00700000,-0.00600000,0.00500000
38,-0.38397243,-0.17453291,0.29670596,-1.38273775,0.91201848,9.02211856,0.00800000,-0.00600000,0.00400000
39,-0.61086521,0.08726646,-0.03490658,-1.91229667,0.73549880,10.75789546,0.00800000,-0.00700000,0.00400000
40,-0.40142574,0.75049157,0.17453291,-1.40235099,0.24516625,11.04228878,0.00800000,-0.00600000,0.00400000
41,-0.59341192,0.75049157,-0.01745329,-0.36284604,0.87279186,9.97336292,0.00900000,-0.00500000,0.00600000
42,-0.34906582,0.45378561,0.22689280,-0.22555296,0.44129929,9.19863796,0.00700000,-0.00600000,0.00600000
43,-0.26179938,0.22689280,0.13962633,-0.50013918,1.55925726,9.44380378,0.00900000,-0.00600000,0.00600000
44,-0.50614547,0.19198621,-0.29670596,-0.65704560,1.37293100,9.75761699,0.00800000,-0.00500000,0.00500000
45,-0.26179938,0.19198621,-0.17453291,-0.58839898,0.52955913,9.74781036,0.01000000,-0.00500000,0.00600000
46,-0.27925267,0.08726646,-0.20943951,-0.53936576,0.50994582,9.49283695,0.00900000,-0.00500000,0.00600000
47,-0.15707963,-0.03490658,-0.06981317,-0.62762565,0.28439283,9.52225780,0.00900000,-0.00500000,0.00400000
48,-0.12217305,-0.03490658,-0.03490658,-0.95124511,0.71588544,9.71839046,0.00900000,-0.00400000,0.00700000
49,-0.19198621,0.00000000,-0.22689280,-1.05911827,0.99047174,9.63013076,0.00900000,-0.00500000,0.00600000
50,-0.26179938,0.05235988,-0.34906582,-0.93163175,0.61781892,9.51245117,0.00900000,-0.00500000,0.00700000
51,-0.20943951,-0.03490658,-0.24434609,-0.57859234,0.06864655,8.94366455,0.00800000,-0.00500000,0.00400000
52,-0.15707963,-0.24434609,-0.10471976,-0.26477956,0.02941995,8.89463138,0.00800000,-0.00400000,0.00500000
53,-0.19198621,-0.41887903,-0.05235988,-0.39226600,0.02941995,9.32612419,0.00900000,-0.00300000,0.00600000
54,-0.13962633,-0.38397243,0.03490658,-0.67665886,0.13729310,10.00278282,0.00900000,-0.00300000,0.00400000
55,-0.22689280,-0.24434609,0.03490658,-0.79433865,0.19613300,10.14988231,0.00900000,-0.00400000,0.00400000
56,-0.22689280,-0.19198621,0.06981317,-0.68646550,0.33342611,9.74781036,0.00800000,-0.00300000,0.00500000
57,-0.27925267,-0.36651916,-0.01745329,-0.39226600,0.74530534,9.47322463,0.00900000,-0.00500000,0.00500000
58,-0.22689280,-0.47123889,-0.05235988,-0.67665886,0.50013918,9.81645679,0.00700000,-0.00400000,0.00400000
59,-0.03490658,-0.26179938,0.06981317,-1.10815143,0.28439283,10.51272964,0.00800000,-0.00400000,0.00300000
60,-0.20943951,0.08726646,-0.13962633,-1.18660461,0.46091256,10.68924903,0.00800000,-0.00300000,0.00500000
61,-0.20943951,0.31415927,-0.15707963,-0.92182512,-0.03922660,9.76742362,0.00700000,-0.00400000,0.00400000
62,-0.15707963,0.19198621,-0.10471976,-0.27458620,-0.15690641,8.81617832,0.00900000,-0.00200000,0.00400000
63,-0.19198621,-0.12217305,-0.06981317,-0.13729310,-0.40207266,8.23758602,0.00800000,-0.00300000,0.00400000
64,-0.12217305,-0.40142574,0.08726646,-0.39226600,-0.49033250,8.37487888,0.00800000,-0.00300000,0.00600000
65,-0.01745329,-0.50614547,0.22689280,-0.94143848,-0.06864655,9.27709102,0.00700000,-0.00300000,0.00300000
66,0.06981317,-0.26179938,0.10471976,-1.47099757,0.82375860,10.31659603,0.00700000,-0.00400000,0.00400000
67,-0.03490658,0.13962633,-0.24434609,-1.78481030,0.95124511,10.41466236,0.00800000,-0.00400000,0.00300000
68,-0.03490658,0.41887903,-0.41887903,-1.22583127,0.36284604,9.76742362,0.00800000,-0.00400000,0.00400000
69,-0.13962633,0.38397243,-0.45378561,-0.52955913,-0.65704560,8.69849872,0.00800000,-0.00400000,0.00500000
70,-0.12217305,0.01745329,-0.10471976,-0.02941995,-1.41215753,7.95319318,0.00900000,-0.00400000,0.00600000
71,0.00000000,-0.48869218,0.22689280,-0.13729310,-0.43149261,8.11990642,0.00700000,-0.00500000,0.00400000
72,-0.06981317,-0.69813165,0.01745329,-0.58839898,0.85317859,9.39477062,0.00700000,-0.00200000,0.00400000
73,-0.17453291,-0.48869218,-0.24434609,-1.02969825,0.36284604,10.88538169,0.00700000,-0.00400000,0.00400000
74,-0.15707963,-0.06981317,-0.10471976,-1.21602463,-0.62762565,11.39532661,0.00800000,-0.00500000,0.00600000
75,0.00000000,0.22689280,0.08726646,-1.01008498,0.06864655,10.70886230,0.00600000,-0.00400000,0.00500000
76,0.00000000,0.38397243,-0.19198621,-0.84337196,0.82375860,10.07142925,0.00600000,-0.00300000,0.00300000
77,-0.01745329,0.43633232,-0.38397243,-0.66685223,-0.09806651,9.43399715,0.00800000,-0.00300000,0.00400000
78,-0.01745329,0.29670596,-0.13962633,-0.54917240,-1.11795806,8.55139827,0.00900000,-0.00400000,0.00400000
79,0.17453291,0.03490658,0.20943951,-0.45110592,-0.59820566,8.37487888,0.00800000,-0.00400000,0.00400000
80,0.12217305,-0.15707963,0.00000000,-0.46091256,0.54917240,8.97308540,0.00700000,-0.00400000,0.00300000
81,0.01745329,-0.10471976,-0.26179938,-0.45110592,-0.23535962,9.66935729,0.00900000,-0.00400000,0.00600000
82,0.05235988,0.01745329,0.03490658,-0.54917240,-1.65732383,9.80665016,0.00800000,-0.00400000,0.00500000
83,0.03490658,0.03490658,0.41887903,-0.60801229,-1.21602463,9.00250434,0.00900000,-0.00400000,0.00400000
84,0.10471976,-0.24434609,0.50614547,-0.62762565,0.64723892,8.75733852,0.00900000,-0.00500000,0.00400000
85,0.01745329,-0.33161256,0.01745329,-0.69627218,1.71616373,9.46341705,0.00800000,-0.00600000,0.00400000
86,-0.08726646,-0.17453291,-0.31415927,-0.94143848,0.57859234,10.11065673,0.00900000,-0.00500000,0.00300000
87,-0.06981317,0.06981317,-0.26179938,-0.91201848,-0.55897903,9.97336292,0.00700000,-0.00500000,0.00300000
88,-0.15707963,0.10471976,-0.13962633,-0.41187930,-0.86298522,9.34573745,0.00800000,-0.00600000,0.00500000
89,-0.19198621,-0.13962633,0.03490658,0.07845321,-0.57859234,9.08095836,0.00900000,-0.00500000,0.00400000
90,-0.10471976,-0.38397243,0.15707963,0.00000000,-0.00980665,9.73800373,0.00800000,-0.00500000,0.00400000
91,-0.05235988,-0.36651916,0.12217305,-0.53936576,0.50994582,10.65002155,0.00800000,-0.00500000,0.00300000
92,0.06981317,0.03490658,-0.05235988,-1.10815143,0.85317859,11.72875308,0.00700000,-0.00600000,0.00300000
93,-0.12217305,0.62831854,-0.40142574,-1.07873153,0.09806651,11.21880817,0.00900000,-0.00500000,0.00400000
94,-0.10471976,0.82030477,-0.19198621,-0.43149261,-1.15718472,9.40457725,0.00800000,-0.00500000,0.00400000
95,-0.05235988,0.47123889,0.08726646,0.18632633,-0.68646550,8.05125999,0.00800000,-0.00500000,0.00500000
96,-0.12217305,-0.24434609,0.08726646,0.38245937,0.21574630,8.11009979,0.00900000,-0.00500000,0.00300000
97,0.03490658,-0.59341192,0.12217305,-0.33342611,0.55897903,9.90471649,0.00900000,-0.00400000,0.00500000
98,-0.06981317,-0.33161256,-0.08726646,-1.23563790,0.39226600,11.29726028,0.01000000,-0.00600000,0.00400000
99,-0.10471976,0.20943951,-0.03490658,-1.58867731,-0.36284604,11.31687450,0.00900000,-0.00400000,0.00400000
100,-0.01745329,0.50614547,0.15707963,-1.18660461,0.12748645,10.02239608,0.01000000,-0.00600000,0.00500000
101,-0.15707963,0.36651916,-0.06981317,-0.50013918,1.05911827,8.65927219,0.01000000,-0.00500000,0.00400000
102,-0.15707963,-0.08726646,-0.17453291,-0.06864655,0.53936576,8.11009979,0.00900000,-0.00500000,0.00500000
103,-0.10471976,-0.45378561,-0.10471976,-0.16671305,-0.10787315,8.73772525,0.01000000,-0.00600000,0.00500000
104,-0.13962633,-0.54105205,0.00000000,-0.54917240,-0.50994582,9.63013076,0.01000000,-0.00500000,0.00400000
105,-0.12217305,-0.45378561,0.15707963,-0.83356533,-0.50013918,10.07142925,0.00900000,-0.00600000,0.00400000
106,-0.06981317,-0.29670596,0.20943951,-1.06892478,0.32361946,10.14007663,0.00900000,-0.00500000,0.00200000
107,0.00000000,-0.17453291,0.01745329,-1.08853816,1.16699135,10.08123588,0.01000000,-0.00500000,0.00400000
108,0.00000000,-0.03490658,-0.26179938,-1.10815143,0.59820566,10.08123588,0.00900000,-0.00500000,0.00300000
109,0.08726646,0.13962633,-0.22689280,-1.09834480,-0.25497291,9.86549091,0.01000000,-0.00700000,0.00300000
110,0.01745329,0.15707963,-0.17453291,-0.66685223,-0.41187930,9.18883132,0.01100000,-0.00700000,0.00300000
111,-0.10471976,-0.03490658,-0.15707963,-0.09806651,-0.55897903,8.90443801,0.00900000,-0.00600000,0.00400000
112,-0.15707963,-0.27925267,-0.01745329,0.01961330,-0.75511207,8.80637168,0.01000000,-0.00500000,0.00300000
113,-0.13962633,-0.57595868,0.15707963,-0.19613300,-0.25497291,8.86521148,0.01000000,-0.00500000,0.00500000
114,-0.05235988,-0.76794486,0.17453291,-0.76491875,0.79433865,10.05181598,0.00900000,-0.00400000,0.00500000
115,0.00000000,-0.54105205,-0.12217305,-1.34351098,1.39254438,11.31687450,0.00900000,-0.00600000,0.00400000
116,-0.05235988,-0.03490658,-0.40142574,-1.54945077,0.91201848,11.66991424,0.00900000,-0.00500000,0.00300000
117,-0.05235988,0.43633232,-0.52359876,-1.11795806,0.42168598,10.75789546,0.00900000,-0.00600000,0.00300000
118,-0.15707963,0.43633232,-0.62831854,-0.27458620,-0.15690641,9.48303031,0.00700000,-0.00600000,0.00400000
119,-0.06981317,0.13962633,-0.40142574,0.27458620,-0.89240512,8.96327781,0.00900000,-0.00500000,0.00300000
120,-0.05235988,-0.15707963,-0.17453291,0.14709974,-1.09834480,8.92405223,0.01000000,-0.00400000,0.00400000
121,0.00000000,-0.33161256,0.03490658,-0.34323275,-0.50994582,9.30651092,0.00900000,-0.00400000,0.00400000
122,-0.01745329,-0.29670596,-0.06981317,-0.83356533,0.34323275,9.99297714,0.01100000,-0.00500000,0.00400000
123,-0.10471976,-0.10471976,-0.27925267,-1.01989161,0.36284604,10.46369647,0.01100000,-0.00500000,0.00400000
124,-0.13962633,0.08726646,-0.33161256,-1.08853816,-0.01961330,10.41466236,0.01000000,-0.00500000,0.00400000
125,-0.05235988,0.20943951,-0.27925267,-0.98066501,0.11767981,10.15968990,0.01000000,-0.00400000,0.00300000
126,-0.01745329,0.20943951,-0.41887903,-0.76491875,0.50013918,9.87529659,0.01000000,-0.00500000,0.00300000
127,-0.01745329,0.24434609,-0.52359876,-0.74530534,0.08825984,9.75761699,0.01000000,-0.00400000,0.00500000
128,-0.01745329,0.26179938,-0.48869218,-0.82375860,-0.35303938,9.38496398,0.01000000,-0.00300000,0.00400000
129,-0.03490658,0.22689280,-0.40142574,-0.66685223,-0.40207266,9.17902469,0.01000000,-0.00300000,0.00700000
130,-0.05235988,0.12217305,-0.40142574,-0.42168598,-0.16671305,9.05153751,0.01000000,-0.00200000,0.00400000
131,-0.06981317,-0.01745329,-0.41887903,-0.32361946,-0.20593965,9.07115173,0.01000000,-0.00300000,0.00400000
132,0.03490658,-0.08726646,-0.36651916,-0.46091256,-0.15690641,9.42419147,0.01100000,-0.00300000,0.00500000
133,0.03490658,0.05235988,-0.45378561,-0.55897903,-0.18632633,10.00278282,0.01100000,-0.00200000,0.00500000
134,0.00000000,0.27925267,-0.43633232,-0.54917240,-0.84337196,10.02239608,0.01000000,-0.00300000,0.00500000
135,0.17453291,0.38397243,-0.12217305,-0.58839898,-0.74530534,9.12999153,0.01200000,-0.00200000,0.00600000
136,0.20943951,0.15707963,-0.19198621,-0.24516625,0.49033250,8.30623245,0.01200000,-0.00100000,0.00400000
137,0.06981317,-0.12217305,-0.52359876,-0.11767981,0.62762565,8.44352626,0.01200000,-0.00300000,0.00600000
138,-0.01745329,-0.29670596,-0.57595868,-0.15690641,-0.58839898,9.30651092,0.01100000,-0.00200000,0.00600000
139,0.03490658,-0.31415927,-0.22689280,-0.43149261,-1.09834480,9.92432975,0.01100000,-0.00200000,0.00400000
140,0.13962633,-0.24434609,-0.05235988,-0.77472538,0.22555296,10.52253532,0.01000000,-0.00100000,0.00600000
141,0.08726646,0.01745329,-0.34906582,-0.97085838,1.09834480,11.09132194,0.01000000,-0.00300000,0.00500000
142,0.10471976,0.41887903,-0.54105205,-1.01989161,0.44129929,10.67944145,0.01200000,-0.00100000,0.00500000
143,0.08726646,0.54105205,-0.48869218,-0.54917240,-0.41187930,9.65955066,0.01200000,-0.00200000,0.00700000
144,0.01745329,0.27925267,-0.27925267,-0.20593965,-0.82375860,8.91424465,0.01100000,-0.00100000,0.00700000
145,0.01745329,-0.08726646,0.01745329,-0.33342611,-0.81395187,9.37515735,0.01300000,-0.00100000,0.00700000
146,-0.03490658,-0.12217305,0.17453291,-1.18660461,-0.09806651,10.42446899,0.01100000,-0.00200000,0.00500000
147,-0.10471976,0.19198621,0.08726646,-1.81423034,0.64723892,10.92460823,0.01200000,0.00000000,0.00700000
148,-0.34906582,0.57595868,-0.17453291,-1.69655036,0.09806651,10.78731536,0.01200000,-0.00200000,0.00600000
149,-0.29670596,0.68067841,-0.03490658,-1.22583127,-0.23535962,9.97336292,0.01300000,-0.00100000,0.00700000
150,-0.34906582,0.64577178,-0.05235988,-0.89240512,-0.11767981,9.58109760,0.01300000,0.00000000,0.00600000
151,-0.27925267,0.50614547,0.06981317,-1.05911827,-0.12748645,9.07115173,0.01300000,-0.00100000,0.00800000
152,-0.19198621,0.41887903,0.05235988,-1.04931151,0.47071924,8.94366455,0.01400000,0.00000000,0.00700000
153,-0.36651916,0.29670596,-0.22689280,-1.05911827,-0.19613300,9.19863796,0.01500000,0.00000000,0.01000000
154,-0.36651916,0.22689280,0.17453291,-1.10815143,-1.37293100,9.33593082,0.01500000,0.00000000,0.01000000
155,-0.19198621,0.15707963,0.34906582,-1.16699135,0.03922660,9.04173183,0.01500000,0.00000000,0.00900000
156,-0.26179938,0.06981317,0.03490658,-1.26505780,1.09834480,9.14960479,0.01500000,0.00000000,0.01000000
157,-0.20943951,0.05235988,-0.19198621,-1.22583127,0.27458620,9.63993644,0.01600000,-0.00100000,0.01000000
158,-0.15707963,0.10471976,-0.05235988,-1.18660461,-1.05911827,9.33593082,0.01500000,0.00000000,0.00800000
159,-0.19198621,0.03490658,0.13962633,-0.89240512,-1.58867731,9.43399715,0.01500000,0.00100000,0.00900000
160,-0.27925267,0.00000000,0.33161256,-0.74530534,-1.71616373,9.43399715,0.01400000,0.00000000,0.01000000
161,-0.31415927,-0.10471976,0.54105205,-0.93163175,-1.62790384,9.32612419,0.01600000,0.00200000,0.00800000
162,-0.29670596,-0.06981317,0.73303833,-0.97085838,-0.95124511,9.30651092,0.01500000,0.00100000,0.00800000
163,-0.13962633,-0.22689280,0.68067841,-0.83356533,0.31381282,8.77695178,0.01600000,0.00100000,0.00900000
164,-0.22689280,-0.34906582,0.20943951,-0.67665886,0.00980665,9.25747776,0.01500000,0.00000000,0.00900000
165,-0.26179938,-0.43633232,0.59341192,-0.84337196,-2.99102830,9.20844459,0.01500000,0.00000000,0.00900000
166,-0.17453291,-0.40142574,1.25663709,-0.90221185,-3.08909487,9.66935729,0.01600000,-0.00100000,0.00900000
167,-0.38397243,-0.31415927,1.39626336,-1.01008498,-1.77500367,9.88510322,0.01500000,0.00100000,0.01000000
168,-0.52359876,-0.06981317,1.48352980,-1.02969825,-1.59848403,10.01259040,0.01400000,-0.00200000,0.00800000
169,-0.52359876,-0.01745329,1.67551612,-0.72569208,-1.12776482,9.27709102,0.01400000,-0.00200000,0.01000000
170,-0.27925267,-0.31415927,1.62315616,-0.49033250,0.45110592,9.28689765,0.01400000,-0.00200000,0.00900000
171,-0.50614547,-0.10471976,0.85521135,-1.40235099,0.54917240,10.31659603,0.01600000,-0.00300000,0.00900000
172,-0.19198621,-0.03490658,1.30899691,-1.18660461,-2.23591613,9.85568332,0.01300000,-0.00400000,0.01100000
173,-0.26179938,-0.08726646,1.69296932,-1.00027835,-2.13784956,10.05181598,0.01400000,-0.00400000,0.00900000
174,-0.40142574,0.01745329,1.88495550,-1.15718472,-2.44185590,10.53234195,0.01300000,-0.00300000,0.00900000
175,-0.22689280,0.17453291,2.35619449,-0.93163175,-2.23591613,10.65002155,0.01400000,-0.00500000,0.00900000
176,-0.19198621,0.26179938,2.42600774,-0.80414533,-0.24516625,10.01259040,0.01500000,-0.00600000,0.00800000
177,-0.20943951,0.01745329,2.05948853,-0.80414533,1.01008498,9.12018489,0.01300000,-0.00800000,0.00900000
178,-0.24434609,-0.19198621,1.62315616,-0.81395187,-0.28439283,9.66935729,0.01400000,-0.00800000,0.00700000
179,-0.19198621,-0.20943951,1.79768905,-1.33370447,-2.19668960,10.80692863,0.01300000,-0.00800000,0.01000000
180,-0.12217305,0.12217305,2.09439516,-1.66713056,-1.43177089,10.95402812,0.01400000,-0.01100000,0.00900000
181,-0.10471976,0.22689280,1.93731546,-1.52003073,0.04903325,10.41466236,0.01300000,-0.01100000,0.01000000
182,-0.12217305,0.24434609,1.57079639,-1.49061069,-0.70607876,10.30678939,0.01500000,-0.01200000,0.00800000
183,-0.06981317,0.47123889,2.00712871,-1.65732383,-2.43204927,10.25775623,0.01400000,-0.01200000,0.00900000
184,0.05235988,0.54105205,2.21656823,-1.22583127,-0.82375860,9.07115173,0.01400000,-0.01200000,0.00900000
185,-0.13962633,0.26179938,1.86750230,-0.69627218,-0.35303938,8.75733852,0.01300000,-0.01400000,0.01200000
186,0.22689280,-0.05235988,2.07694172,-0.57859234,-1.01989161,8.99269771,0.01200000,-0.01600000,0.01100000
187,0.40142574,-0.29670596,1.86750230,-0.82375860,-0.08825984,9.27709102,0.01100000,-0.01700000,0.01100000
188,0.33161256,-0.43633232,1.51843643,-1.25525128,-0.62762565,9.75761699,0.01300000,-0.01600000,0.01100000
189,0.27925267,-0.38397243,1.57079639,-1.87307014,-1.49061069,10.17930316,0.01100000,-0.01900000,0.01100000
190,0.17453291,-0.22689280,1.57079639,-2.35359597,-1.08853816,10.73828220,0.01000000,-0.01900000,0.01100000
191,0.03490658,0.10471976,1.64060950,-2.13784956,-0.76491875,10.67944145,0.00900000,-0.02000000,0.01100000
192,-0.01745329,0.15707963,1.32645022,-1.66713056,-0.25497291,10.23814296,0.00900000,-0.02100000,0.01200000
193,-0.17453291,0.12217305,1.23918378,-1.70635709,-1.45138416,10.11065673,0.01000000,-0.02100000,0.01100000
194,-0.06981317,0.19198621,1.58824958,-1.56906404,-1.24544465,9.98316955,0.01000000,-0.02100000,0.01100000
195,-0.12217305,-0.05235988,1.44862327,-1.30428445,0.28439283,9.16921806,0.00900000,-0.02100000,0.01100000
196,-0.01745329,-0.22689280,1.25663709,-1.70635709,0.42168598,9.91452407,0.00900000,-0.02200000,0.01100000
197,0.17453291,-0.08726646,1.06465089,-2.39282274,-0.30400614,10.44408321,0.00700000,-0.02300000,0.01000000
198,0.06981317,0.29670596,1.08210409,-2.68702197,-1.46119093,10.85596179,0.00900000,-0.02300000,0.01000000
199,0.08726646,0.68067841,1.48352980,-2.02016997,-0.93163175,10.20872306,0.00600000,-0.02400000,0.01200000
200,-0.01745329,0.47123889,1.36135685,-0.95124511,0.91201848,8.89463138,0.00700000,-0.02300000,0.01200000
201,-0.03490658,0.03490658,1.09955739,-0.71588544,0.70607876,8.96327781,0.00700000,-0.02400000,0.01200000
202,0.12217305,-0.15707963,1.15191733,-1.43177089,-0.18632633,9.39477062,0.00600000,-0.02500000,0.01000000
203,-0.15707963,0.00000000,1.06465089,-2.10842990,-0.49033250,10.04201030,0.00700000,-0.02500000,0.01100000
204,-0.10471976,0.33161256,1.22173047,-2.17707633,-0.31381282,10.51272964,0.00600000,-0.02600000,0.01200000
205,0.05235988,0.54105205,1.15191733,-1.48080406,0.62762565,10.03220272,0.00600000,-0.02600000,0.01200000
206,0.17453291,0.36651916,0.80285148,-1.26505780,0.54917240,8.72791862,0.00400000,-0.02800000,0.01200000
207,0.36651916,0.15707963,0.87266464,-1.21602463,-0.54917240,8.60043239,0.00600000,-0.02700000,0.01100000
208,0.45378561,-0.12217305,0.99483766,-1.36312437,-0.50013918,8.36507225,0.00400000,-0.02700000,0.01300000
209,0.15707963,-0.24434609,0.92502450,-1.99074993,-0.41187930,9.57129096,0.00400000,-0.02800000,0.01300000
210,0.12217305,0.03490658,1.06465089,-2.60856890,-0.38245937,11.00306129,0.00300000,-0.02900000,0.01200000
211,-0.12217305,0.59341192,0.83775806,-3.11851453,-0.21574630,11.39532661,0.00500000,-0.02900000,0.01200000
212,-0.38397243,1.22173047,0.76794486,-2.77528190,-0.77472538,10.71866893,0.00200000,-0.02900000,0.01100000
213,-0.34906582,1.36135685,1.04719758,-1.88287687,-0.38245937,9.16921806,0.00300000,-0.03000000,0.01300000
214,-0.10471976,1.06465089,1.15191733,-1.21602463,0.88259859,7.60996055,0.00500000,-0.02900000,0.01300000
215,-0.10471976,0.50614547,0.90757122,-0.81395187,1.33370447,7.15885496,0.00400000,-0.03000000,0.01300000
216,0.03490658,-0.12217305,0.87266464,-1.32389783,0.65704560,8.00222682,0.00300000,-0.03000000,0.01500000
217,-0.19198621,-0.33161256,0.85521135,-2.33398270,-0.61781892,9.74781036,0.00200000,-0.03000000,0.01400000
218,-0.29670596,0.08726646,1.29154359,-2.80470199,-1.01989161,10.82654190,0.00100000,-0.03000000,0.01400000
219,-0.19198621,0.47123889,1.34390354,-2.87334871,0.93163175,10.43427562,0.00100000,-0.03200000,0.01400000
220,-0.33161256,0.61086521,0.95993108,-2.36340260,1.72597036,9.02211856,0.00100000,-0.03100000,0.01500000
221,-0.26179938,0.27925267,0.83775806,-1.93191003,0.08825984,8.52197933,0.00000000,-0.03100000,0.01400000
222,-0.22689280,0.06981317,1.20427715,-1.92210340,-1.08853816,8.95347118,0.00100000,-0.03100000,0.01500000
223,-0.01745329,-0.03490658,1.44862327,-1.95152339,0.56878566,9.04173183,0.00100000,-0.03100000,0.01400000
224,-0.13962633,-0.20943951,1.01229095,-2.14765644,1.87307014,9.07115173,0.00100000,-0.03200000,0.01400000
225,-0.22689280,-0.17453291,0.73303833,-2.61837553,0.71588544,9.77723026,0.00000000,-0.03200000,0.01400000
226,-0.17453291,0.10471976,0.94247779,-2.74586200,-0.05883990,10.08123588,-0.00100000,-0.03200000,0.01400000
227,-0.03490658,0.26179938,0.97738437,-2.09862303,1.47099757,9.27709102,0.00000000,-0.03100000,0.01300000
228,0.10471976,-0.01745329,0.76794486,-1.09834480,2.76547551,7.77667331,0.00000000,-0.03200000,0.01400000
229,0.24434609,-0.80285148,0.26179938,-1.06892478,2.28494954,6.94310855,0.00000000,-0.03300000,0.01300000
230,-0.01745329,-1.09955739,0.17453291,-1.94171667,-1.04931151,8.90443801,-0.00300000,-0.03300000,0.01400000
231,0.05235988,-0.78539819,1.01229095,-2.66740894,-1.96133003,10.49311637,-0.00200000,-0.03300000,0.01300000
232,-0.12217305,-0.40142574,1.08210409,-2.62818241,1.20621800,10.46369647,-0.00400000,-0.03200000,0.01400000
233,-0.34906582,-0.10471976,0.54105205,-2.14765644,2.34378933,10.42446899,-0.00300000,-0.03400000,0.01200000
234,-0.27925267,-0.13962633,0.43633232,-1.82403697,1.43177089,9.11037826,-0.00500000,-0.03300000,0.01200000
235,-0.33161256,-0.33161256,0.50614547,-1.64751720,0.59820566,8.62985229,-0.00400000,-0.03400000,0.01400000
236,-0.27925267,-0.61086521,0.61086521,-1.83384361,0.64723892,9.12018489,-0.00500000,-0.03400000,0.01200000
237,-0.31415927,-0.50614547,0.57595868,-2.59876203,0.97085838,10.32640266,-0.00600000,-0.03300000,0.01300000
238,-0.31415927,0.05235988,0.52359876,-2.79489517,1.01008498,11.04228878,-0.00500000,-0.03200000,0.01200000
239,-0.27925267,0.36651916,0.50614547,-2.02997660,1.36312437,9.84587669,-0.00700000,-0.03200000,0.01000000
240,-0.22689280,0.13962633,0.34906582,-1.07873153,1.66713056,8.77695178,-0.00700000,-0.03200000,0.01100000
241,-0.19198621,-0.27925267,0.24434609,-1.01008498,0.97085838,8.87501811,-0.00700000,-0.03300000,0.01300000
242,-0.19198621,-0.41887903,0.34906582,-1.55925726,0.02941995,9.92432975,-0.00700000,-0.03200000,0.01200000
243,-0.12217305,-0.19198621,0.62831854,-2.00055670,0.17651968,10.53234195,-0.00600000,-0.03200000,0.01200000
244,-0.15707963,0.06981317,0.57595868,-2.04958987,1.25525128,9.96355724,-0.00800000,-0.03300000,0.01200000
245,-0.13962633,0.12217305,0.38397243,-1.56906404,1.51022410,9.04173183,-0.00900000,-0.03200000,0.01100000
246,-0.15707963,0.01745329,0.17453291,-1.52003073,0.40207266,8.45333194,-0.00700000,-0.03200000,0.01100000
247,-0.29670596,-0.05235988,0.40142574,-1.57887067,-1.11795806,8.72791862,-0.00500000,-0.03200000,0.01100000
248,-0.01745329,-0.06981317,0.85521135,-1.61809730,0.19613300,8.30623245,-0.00800000,-0.03300000,0.01200000
249,-0.13962633,-0.15707963,0.41887903,-1.38273775,1.84365024,8.18855285,-0.00900000,-0.03400000,0.01200000
250,-0.12217305,-0.40142574,0.27925267,-1.22583127,1.15718472,8.48275279,-0.00900000,-0.03400000,0.01100000
251,0.03490658,-0.62831854,0.13962633,-1.72597036,0.49033250,8.78675842,-0.00700000,-0.03100000,0.01200000
252,-0.31415927,-0.52359876,0.10471976,-2.51050257,-1.52983751,10.59118270,-0.01000000,-0.03300000,0.01100000
253,-0.12217305,0.06981317,0.73303833,-2.77528190,-1.41215753,11.21880817,-0.01000000,-0.03200000,0.01100000
254,-0.20943951,0.47123889,0.57595868,-2.15746307,1.06892478,10.46369647,-0.01000000,-0.03100000,0.01100000
255,-0.29670596,0.47123889,0.29670596,-1.33370447,1.53964414,8.72791862,-0.01000000,-0.03100000,0.01100000
256,-0.20943951,0.08726646,0.27925267,-0.41187930,1.22583127,7.90416002,-0.01000000,-0.03100000,0.01200000
257,0.06981317,-0.54105205,0.26179938,-0.46091256,1.26505780,7.64918661,-0.01100000,-0.03100000,0.01100000
258,0.15707963,-0.89011783,0.31415927,-0.62762565,0.60801229,8.90443801,-0.00900000,-0.03100000,0.01100000
259,0.55850534,-1.01229095,0.52359876,-1.01008498,1.22583127,10.21852970,-0.01000000,-0.03300000,0.01100000
260,0.38397243,-0.78539819,0.33161256,-1.15718472,1.72597036,11.36590766,-0.01200000,-0.03200000,0.01000000
261,0.41887903,-0.52359876,0.38397243,-1.13757133,1.82403697,11.54242801,-0.01200000,-0.03200000,0.01200000
262,0.27925267,-0.26179938,0.12217305,-1.20621800,2.19668960,11.25803470,-0.01200000,-0.03200000,0.01200000
263,-0.03490658,-0.05235988,-0.06981317,-1.33370447,0.75511207,10.62060165,-0.01300000,-0.03200000,0.01200000
264,-0.20943951,0.13962633,0.15707963,-1.43177089,-0.50994582,10.15968990,-0.01200000,-0.03200000,0.01200000
265,-0.41887903,0.34906582,0.47123889,-1.34351098,-0.35303938,9.79684352,-0.01300000,-0.03200000,0.01200000
266,-0.36651916,0.41887903,0.57595868,-0.77472538,1.25525128,8.84559822,-0.01300000,-0.03300000,0.01300000
267,-0.24434609,0.12217305,0.38397243,-0.37265267,1.92210340,8.25719928,-0.01400000,-0.03300000,0.01200000
268,-0.20943951,-0.22689280,0.22689280,-0.47071924,1.09834480,8.22777938,-0.01300000,-0.03300000,0.01100000
269,-0.10471976,-0.47123889,0.43633232,-0.66685223,0.33342611,8.99269771,-0.01300000,-0.03200000,0.01200000
270,-0.05235988,-0.59341192,0.43633232,-1.31409120,0.88259859,9.78703689,-0.01400000,-0.03200000,0.01100000
271,-0.34906582,-0.33161256,0.20943951,-1.95152339,-0.03922660,11.24822711,-0.01500000,-0.03400000,0.01300000
272,-0.17453291,0.24434609,0.62831854,-1.99074993,-0.17651968,11.00306129,-0.01400000,-0.03200000,0.01100000
273,-0.29670596,0.52359876,0.41887903,-1.11795806,1.32389783,9.73800373,-0.01500000,-0.03300000,0.01100000
274,-0.08726646,0.40142574,0.47123889,0.03922660,1.51022410,8.54159259,-0.01600000,-0.03200000,0.01200000
275,0.08726646,-0.13962633,0.33161256,0.61781892,2.05939650,7.55112028,-0.01500000,-0.03200000,0.01200000
276,0.15707963,-0.87266464,0.08726646,0.04903325,1.05911827,8.10029315,-0.01600000,-0.03100000,0.01100000
277,0.01745329,-0.90757122,0.22689280,-0.84337196,-0.43149261,10.65982913,-0.01400000,-0.03200000,0.01200000
278,0.10471976,-0.27925267,0.69813165,-1.78481030,0.11767981,12.51328563,-0.01600000,-0.03200000,0.01000000
279,0.17453291,0.66322512,0.50614547,-1.39254438,2.12804293,11.33648777,-0.01600000,-0.03200000,0.01200000
280,-0.19198621,0.62831854,0.19198621,-0.20593965,1.44157752,9.22805786,-0.01900000,-0.03100000,0.01200000
281,-0.01745329,0.15707963,0.50614547,0.19613300,0.60801229,8.52197933,-0.01700000,-0.03100000,0.01100000
282,-0.03490658,-0.24434609,0.59341192,0.11767981,0.73549880,8.64946556,-0.01600000,-0.03100000,0.01200000
283,0.10471976,-0.48869218,0.69813165,-0.03922660,1.59848403,9.59090328,-0.01700000,-0.03200000,0.01200000
284,0.12217305,-0.66322512,0.45378561,-0.63743219,2.04958987,9.58109760,-0.01800000,-0.03100000,0.01200000
285,0.05235988,-0.52359876,0.17453291,-1.43177089,0.67665886,10.75789546,-0.01900000,-0.03100000,0.01200000
286,-0.10471976,-0.10471976,0.36651916,-2.07900977,-1.43177089,11.31687450,-0.01900000,-0.03200000,0.01200000
287,-0.12217305,0.47123889,0.87266464,-1.38273775,-0.94143848,11.59146118,-0.01800000,-0.03200000,0.01300000
288,-0.05235988,0.41887903,0.90757122,-0.53936576,0.85317859,9.54187011,-0.02000000,-0.03200000,0.01200000
289,-0.27925267,-0.01745329,0.47123889,-0.49033250,0.66685223,9.27709102,-0.01800000,-0.03200000,0.01400000
290,-0.10471976,-0.12217305,0.76794486,-1.06892478,-0.92182512,9.83607006,-0.02100000,-0.03100000,0.01200000
291,-0.03490658,-0.12217305,0.95993108,-1.50041747,-0.50994582,10.01259040,-0.02000000,-0.03300000,0.01200000
292,-0.22689280,0.05235988,0.90757122,-1.22583127,-0.58839898,10.16949558,-0.02100000,-0.03200000,0.01200000
293,-0.59341192,0.13962633,1.18682384,-0.93163175,-1.37293100,9.44380378,-0.02100000,-0.03100000,0.01200000
294,-0.33161256,-0.08726646,1.55334305,-1.04931151,0.00000000,8.16893959,-0.02300000,-0.03000000,0.01100000
295,-0.59341192,-0.55850534,0.94247779,-1.13757133,0.10787315,10.42446899,-0.02100000,-0.03100000,0.01100000
296,-0.38397243,-0.29670596,1.53588972,-1.39254438,-2.51050257,11.88566017,-0.02200000,-0.03000000,0.01100000
297,-0.19198621,-0.01745329,2.14675498,-1.29447782,-0.95124511,11.67971992,-0.02300000,-0.03000000,0.01200000
298,-0.31415927,0.12217305,1.85004901,-1.28467119,-0.62762565,12.23869991,-0.02400000,-0.03100000,0.01100000
299,-0.41887903,0.33161256,2.56563401,-1.56906404,-3.61865377,11.68952751,-0.02500000,-0.02900000,0.01100000
300,-0.45378561,1.04719758,3.22885918,-0.40207266,-1.04931151,11.18938827,-0.02700000,-0.02800000,0.01100000
301,-0.97738437,0.82030477,2.80998020,0.47071924,0.95124511,8.39449214,-0.02800000,-0.02800000,0.01100000
302,-0.57595868,0.17453291,2.49582076,0.26477956,1.22583127,9.53206443,-0.02900000,-0.03000000,0.00800000
303,-0.34906582,0.43633232,2.23402142,0.21574630,1.12776482,11.24822711,-0.03000000,-0.02600000,0.01000000
304,-0.17453291,0.41887903,2.32128787,0.50994582,1.03950488,9.24767112,-0.02900000,-0.02500000,0.01100000
305,0.06981317,0.06981317,1.86750230,0.40207266,2.24572300,8.35526561,-0.03100000,-0.02500000,0.01000000
306,0.17453291,-0.17453291,1.39626336,-0.10787315,1.83384361,9.47322463,-0.03100000,-0.02400000,0.00900000
307,0.34906582,0.05235988,1.04719758,-0.00980665,0.55897903,10.95402812,-0.03300000,-0.02400000,0.01000000
308,0.19198621,0.12217305,1.32645022,-0.22555296,-1.68674383,9.56148433,-0.03300000,-0.02400000,0.01000000
309,0.03490658,-0.03490658,1.79768905,-0.01961330,-1.85345687,9.08095836,-0.03400000,-0.02400000,0.00900000
310,0.22689280,-0.15707963,2.09439516,-0.84337196,0.39226600,10.03220272,-0.03500000,-0.02400000,0.01000000
311,0.01745329,0.34906582,1.44862327,-0.85317859,1.75539040,11.15016078,-0.03600000,-0.02500000,0.01000000
312,-0.01745329,0.76794486,1.41371669,-0.19613300,-0.00980665,10.89518737,-0.03600000,-0.02300000,0.00900000
313,-0.05235988,0.41887903,1.62315616,0.22555296,-0.45110592,8.54159259,-0.03600000,-0.02100000,0.01000000
314,-0.06981317,0.03490658,1.71042261,-0.18632633,0.01961330,9.22805786,-0.03700000,-0.02300000,0.00900000
315,0.08726646,0.26179938,1.72787594,-1.43177089,0.71588544,10.90499496,-0.03800000,-0.02100000,0.00900000
316,-0.03490658,0.76794486,1.58824958,-1.58867731,0.61781892,11.05209445,-0.03700000,-0.02100000,0.00900000
317,0.24434609,1.02974426,1.58824958,-1.13757133,1.19641137,10.74808788,-0.03800000,-0.01900000,0.00900000
318,0.19198621,1.15191733,1.27409029,-0.35303938,1.08853816,8.84559822,-0.03900000,-0.02000000,0.00800000
319,0.33161256,0.31415927,1.13446402,-0.51975245,0.84337196,7.49228048,-0.03800000,-0.02000000,0.00600000
320,0.17453291,0.03490658,1.06465089,-1.52983751,-0.20593965,8.77695178,-0.03900000,-0.01900000,0.00600000
321,0.26179938,0.34906582,1.58824958,-1.10815143,-0.59820566,9.58109760,-0.03900000,-0.02100000,0.00800000
322,0.29670596,0.38397243,1.58824958,-0.45110592,1.47099757,7.53150749,-0.03900000,-0.01900000,0.00700000
323,0.06981317,-0.15707963,0.99483766,0.18632633,1.66713056,6.56064939,-0.04000000,-0.01700000,0.00700000
324,0.50614547,-1.34390354,1.20427715,0.18632633,0.21574630,5.70747041,-0.04100000,-0.01800000,0.00500000
325,0.41887903,-2.19911479,1.18682384,-0.99047174,0.29419948,9.82626342,-0.04200000,-0.01800000,0.00800000
326,0.24434609,-1.86750230,1.30899691,-1.52003073,0.65704560,13.68027687,-0.04500000,-0.01800000,0.00700000
327,0.87266464,-0.55850534,1.16937053,-3.47155427,2.55953574,14.02350902,-0.04500000,-0.01800000,0.00900000
328,0.00000000,0.68067841,0.38397243,-2.12804293,1.72597036,12.46425247,-0.04600000,-0.01800000,0.00700000
329,0.76794486,1.29154359,0.83775806,-1.47099757,1.23563790,11.37571430,-0.04500000,-0.01700000,0.00700000
330,-0.06981317,1.46607661,0.27925267,-0.11767981,0.82375860,9.62032413,-0.04500000,-0.01700000,0.00600000
331,0.45378561,0.95993108,0.97738437,0.22555296,0.16671305,8.15913295,-0.04400000,-0.01700000,0.00600000
332,0.17453291,0.75049157,0.71558499,0.33342611,1.74558377,8.45333194,-0.04400000,-0.01700000,0.00500000
333,0.26179938,0.24434609,0.68067841,-0.41187930,2.10842990,6.65871572,-0.04300000,-0.01600000,0.00200000
334,0.06981317,-0.12217305,0.41887903,-0.43149261,1.17679798,7.55112028,-0.04400000,-0.01500000,0.00400000
335,0.29670596,-0.57595868,0.89011783,-0.90221185,0.58839898,7.54131412,-0.04400000,-0.01700000,0.00200000
336,0.29670596,-0.85521135,0.71558499,-1.49061069,1.66713056,9.39477062,-0.04500000,-0.01600000,0.00200000
337,0.19198621,-0.36651916,0.75049157,-1.81423034,1.49061069,11.36590766,-0.04400000,-0.01700000,0.00300000
338,0.31415927,0.15707963,0.64577178,-2.02016997,2.11823654,10.51272964,-0.04600000,-0.01600000,0.00300000
339,-0.01745329,0.48869218,0.45378561,-0.94143848,1.62790384,9.89490985,-0.04500000,-0.01500000,0.00200000
340,0.24434609,0.17453291,0.69813165,-0.37265267,1.69655036,8.20816612,-0.04300000,-0.01500000,0.00300000
341,-0.03490658,-0.26179938,0.41887903,-0.26477956,2.01036334,8.34545898,-0.04300000,-0.01600000,0.00200000
342,0.15707963,-0.33161256,0.59341192,-0.98066501,1.74558377,9.28689765,-0.04400000,-0.01600000,0.00400000
343,-0.01745329,-0.12217305,0.45378561,-1.44157752,1.85345687,10.00278282,-0.04500000,-0.01400000,0.00500000
344,0.12217305,0.19198621,0.59341192,-1.60829067,1.59848403,10.07142925,-0.04300000,-0.01500000,0.00400000
345,0.01745329,0.43633232,0.54105205,-1.04931151,1.99074993,9.62032413,-0.04400000,-0.01200000,0.00600000
346,0.01745329,0.38397243,0.47123889,-0.50994582,2.14765644,9.00250434,-0.04300000,-0.01500000,0.00300000
347,-0.06981317,0.27925267,0.45378561,-0.10787315,1.95152339,9.21825122,-0.04300000,-0.01500000,0.00600000
348,-0.01745329,0.13962633,0.45378561,-0.58839898,2.06920313,9.01231193,-0.04200000,-0.01400000,0.00500000
349,-0.19198621,0.19198621,0.40142574,-0.60801229,1.65732383,9.43399715,-0.04300000,-0.01600000,0.00600000
350,0.12217305,0.13962633,0.64577178,-0.85317859,2.24572300,9.02211856,-0.04200000,-0.01400000,0.00500000
351,-0.22689280,0.13962633,0.24434609,-1.14737808,2.16726970,10.14988231,-0.04300000,-0.01400000,0.00600000
352,0.01745329,0.40142574,0.62831854,-1.48080406,1.18660461,9.47322463,-0.04100000,-0.01500000,0.00800000
353,-0.17453291,0.40142574,0.54105205,-1.46119093,1.83384361,9.05153751,-0.04200000,-0.01400000,0.00500000
354,-0.17453291,0.52359876,0.62831854,-1.11795806,1.71616373,8.87501811,-0.04300000,-0.01300000,0.00600000
355,-0.15707963,0.47123889,0.62831854,-0.89240512,2.32417607,8.67888545,-0.04400000,-0.01300000,0.00400000
356,-0.19198621,0.36651916,0.55850534,-0.29419948,2.49088931,8.37487888,-0.04200000,-0.01500000,0.00500000
357,-0.13962633,-0.05235988,0.43633232,0.41187930,2.60856890,7.77667331,-0.04200000,-0.01300000,0.00600000
358,-0.22689280,-0.68067841,0.40142574,0.20593965,1.86326351,8.23758602,-0.04300000,-0.01300000,0.00500000
359,-0.19198621,-0.82030477,0.55850534,-0.87279186,1.72597036,10.98344802,-0.04200000,-0.01200000,0.00400000
360,-0.20943951,-0.22689280,0.61086521,-1.99074993,2.18688297,12.47405815,-0.04400000,-0.01300000,0.00500000
361,-0.15707963,0.82030477,0.45378561,-2.67721557,2.55953574,12.79767799,-0.04300000,-0.01200000,0.00500000
362,-0.27925267,1.86750230,0.27925267,-1.58867731,2.24572300,11.46397399,-0.04200000,-0.01100000,0.00400000
363,-0.29670596,2.02458190,0.22689280,-0.09806651,1.68674383,7.55112028,-0.04200000,-0.01100000,0.00300000
364,-0.41887903,1.32645022,0.29670596,1.04931151,1.27486443,6.10954332,-0.03900000,-0.01200000,0.00200000
365,-0.41887903,0.13962633,0.59341192,1.33370447,1.07873153,5.79573059,-0.03900000,-0.01000000,0.00200000
366,-0.26179938,-0.57595868,0.71558499,0.57859234,2.04958987,7.23730754,-0.03900000,-0.00900000,0.00200000
367,-0.36651916,-0.89011783,0.50614547,-0.50994582,2.30456280,8.93385887,-0.03800000,-0.00900000,0.00200000
368,-0.26179938,-0.75049157,0.48869218,-1.52983751,1.75539040,10.64021587,-0.04100000,-0.00900000,0.00200000
369,-0.29670596,-0.17453291,0.59341192,-2.10842990,1.70635709,11.74836635,-0.04000000,-0.01000000,0.00300000
370,-0.17453291,0.38397243,0.55850534,-2.11823654,2.22610950,11.25803470,-0.03900000,-0.00800000,0.00400000
371,-0.24434609,0.64577178,0.34906582,-1.39254438,2.39282274,10.59118270,-0.03900000,-0.00800000,0.00300000
372,-0.06981317,0.61086521,0.45378561,-0.64723892,2.10842990,9.20844459,-0.03900000,-0.00800000,0.00300000
373,-0.12217305,0.19198621,0.31415927,-0.14709974,2.51050257,8.30623245,-0.04000000,-0.00700000,0.00300000
374,-0.08726646,-0.27925267,0.27925267,-0.30400614,2.00055670,8.30623245,-0.03800000,-0.00800000,0.00300000
375,-0.03490658,-0.55850534,0.40142574,-0.76491875,1.78481030,9.12018489,-0.03900000,-0.00800000,0.00200000
376,-0.06981317,-0.34906582,0.33161256,-1.23563790,2.31436944,10.37543582,-0.04000000,-0.00700000,0.00300000
377,-0.03490658,-0.05235988,0.20943951,-1.34351098,2.31436944,10.20872306,-0.03900000,-0.00800000,0.00200000
378,-0.12217305,0.19198621,0.13962633,-1.06892478,1.68674383,9.69877719,-0.03900000,-0.00700000,0.00600000
379,-0.05235988,0.24434609,0.41887903,-0.30400614,1.39254438,8.72791862,-0.04000000,-0.00700000,0.00400000
380,0.01745329,-0.05235988,0.33161256,0.22555296,2.67721557,7.62957382,-0.03900000,-0.00700000,0.00400000
381,-0.17453291,-0.55850534,0.03490658,0.45110592,2.37320923,7.92377376,-0.04000000,-0.00700000,0.00400000
382,0.01745329,-0.89011783,0.26179938,0.12748645,1.59848403,8.71811199,-0.04000000,-0.00800000,0.00500000
383,-0.08726646,-0.89011783,0.26179938,-0.65704560,1.75539040,9.91452407,-0.04100000,-0.00800000,0.00600000
384,-0.03490658,-0.50614547,0.27925267,-1.10815143,2.02016997,10.98344802,-0.04300000,-0.00700000,0.00500000
385,-0.12217305,0.08726646,0.26179938,-0.79433865,2.15746307,10.36562919,-0.04100000,-0.01000000,0.00500000
386,-0.03490658,0.03490658,0.19198621,-0.69627218,2.32417607,8.58081912,-0.04000000,-0.00700000,0.00700000
387,-0.22689280,-0.22689280,0.06981317,-0.30400614,1.07873153,8.66907882,-0.04100000,-0.00700000,0.00600000
388,0.08726646,-0.52359876,0.52359876,-0.71588544,1.04931151,8.81617832,-0.04000000,-0.00800000,0.00600000
389,-0.08726646,-0.43633232,0.31415927,-0.97085838,2.20649623,9.79684352,-0.04300000,-0.00800000,0.00600000
390,0.01745329,-0.15707963,0.38397243,-0.80414533,2.32417607,9.06134510,-0.04300000,-0.00800000,0.00600000
391,-0.05235988,-0.29670596,0.15707963,-0.22555296,2.30456280,7.86493349,-0.04100000,-0.00800000,0.00700000
392,-0.10471976,-0.80285148,0.26179938,-0.05883990,1.14737808,8.01203250,-0.04200000,-0.00700000,0.00600000
393,0.05235988,-1.11701071,0.55850534,-0.48052587,1.36312437,9.72819709,-0.04300000,-0.00800000,0.00800000
394,-0.06981317,-0.82030477,0.45378561,-1.16699135,2.12804293,11.25803470,-0.04300000,-0.00800000,0.00900000
395,-0.06981317,0.01745329,0.38397243,-1.51022410,2.14765644,11.75817394,-0.04400000,-0.00800000,0.00900000
396,-0.15707963,0.61086521,0.33161256,-0.47071924,1.85345687,10.69905471,-0.04400000,-0.00800000,0.00800000
397,-0.12217305,0.52359876,0.43633232,0.76491875,2.01036334,8.73772525,-0.04300000,-0.00800000,0.00800000
398,-0.10471976,-0.01745329,0.29670596,1.46119093,2.56934237,7.97280693,-0.04200000,-0.00600000,0.00800000
399,-0.05235988,-0.69813165,0.12217305,0.55897903,2.26533627,7.35498762,-0.04500000,-0.00800000,0.00800000
400,-0.15707963,-0.92502450,0.13962633,-0.21574630,0.80414533,9.35554409,-0.04300000,-0.00700000,0.00700000
401,0.00000000,-0.57595868,0.66322512,-0.75511207,0.90221185,11.04228878,-0.04400000,-0.00800000,0.00800000
402,-0.05235988,-0.05235988,0.36651916,-0.88259859,2.72624874,10.98344802,-0.04400000,-0.00700000,0.00800000
403,-0.19198621,0.24434609,0.12217305,-0.33342611,1.97113666,10.35582256,-0.04500000,-0.00700000,0.01000000
404,-0.08726646,0.34906582,0.36651916,0.47071924,1.33370447,9.57129096,-0.04400000,-0.00700000,0.00900000
405,-0.13962633,0.00000000,0.38397243,1.02969825,1.86326351,8.42391300,-0.04500000,-0.00800000,0.00900000
406,-0.05235988,-0.48869218,0.31415927,0.62762565,2.35359597,8.04145336,-0.04400000,-0.00700000,0.01100000
407,-0.22689280,-0.59341192,0.13962633,0.14709974,1.84365024,9.43399715,-0.04500000,-0.00700000,0.01000000
408,-0.03490658,-0.38397243,0.33161256,-0.45110592,1.61809730,10.28717613,-0.04500000,-0.00700000,0.01000000
409,-0.20943951,0.01745329,0.15707963,-0.38245937,1.78481030,10.86576843,-0.04400000,-0.00700000,0.00900000
410,-0.17453291,0.34906582,0.29670596,0.17651968,1.67693719,11.13054752,-0.04400000,-0.00800000,0.01000000
411,-0.12217305,0.71558499,0.29670596,0.51975245,2.34378933,9.83607006,-0.04600000,-0.00700000,0.00900000
412,-0.22689280,0.48869218,0.06981317,0.88259859,2.10842990,7.59034729,-0.04500000,-0.00600000,0.00900000
413,-0.20943951,-0.03490658,0.22689280,1.55925726,1.03950488,7.71783351,-0.04300000,-0.00600000,0.00900000
414,-0.10471976,-0.59341192,0.50614547,1.67693719,1.72597036,8.39449214,-0.04300000,-0.00600000,0.00900000
415,-0.24434609,-0.90757122,0.20943951,1.24544465,2.78508877,10.33620929,-0.04500000,-0.00600000,0.00900000
416,-0.13962633,-0.71558499,0.17453291,0.64723892,2.14765644,12.02295303,-0.04500000,-0.00600000,0.01000000
417,0.00000000,-0.19198621,0.27925267,0.58839898,2.18688297,12.55251216,-0.04500000,-0.00700000,0.00900000
418,-0.03490658,0.12217305,0.12217305,0.84337196,2.72624874,11.65030002,-0.04500000,-0.00700000,0.01000000
419,-0.03490658,0.13962633,-0.03490658,1.19641137,2.20649623,11.13054752,-0.04300000,-0.00500000,0.00900000
420,0.03490658,0.12217305,0.10471976,1.46119093,1.89268350,10.92460823,-0.04400000,-0.00500000,0.01100000
421,0.10471976,0.03490658,0.03490658,1.20621800,2.48108243,10.68924903,-0.04500000,-0.00600000,0.01000000
422,0.01745329,0.13962633,-0.10471976,0.98066501,2.35359597,11.00306129,-0.04500000,-0.00700000,0.01100000
423,0.13962633,0.19198621,-0.05235988,0.83356533,2.08881640,10.28717613,-0.04300000,-0.00600000,0.00800000
424,0.00000000,0.12217305,-0.06981317,1.08853816,1.84365024,10.33620929,-0.04300000,-0.00600000,0.01000000
425,0.19198621,0.00000000,0.05235988,0.71588544,2.27514266,10.09104347,-0.04300000,-0.00500000,0.00900000
426,0.01745329,-0.01745329,-0.17453291,0.58839898,2.34378933,10.24794864,-0.04400000,-0.00600000,0.01000000
427,0.17453291,-0.08726646,-0.06981317,0.26477956,1.94171667,10.37543582,-0.04400000,-0.00700000,0.00900000
428,0.10471976,0.08726646,-0.08726646,0.30400614,1.66713056,11.02267456,-0.04400000,-0.00800000,0.00900000
429,0.15707963,0.17453291,0.15707963,0.44129929,1.94171667,10.79712104,-0.04500000,-0.00600000,0.00900000
430,0.19198621,0.24434609,-0.05235988,0.37265267,3.00083494,10.35582256,-0.04500000,-0.00700000,0.00800000
431,0.08726646,0.17453291,-0.27925267,0.50013918,2.28494954,9.78703689,-0.04300000,-0.00600000,0.00800000
432,0.13962633,-0.10471976,-0.08726646,0.52955913,1.13757133,9.69877719,-0.04400000,-0.00600000,0.01000000
433,0.24434609,-0.15707963,0.12217305,0.32361946,1.58867731,10.36562919,-0.04400000,-0.00700000,0.00900000
434,0.27925267,-0.10471976,-0.01745329,0.07845321,2.55953574,10.40485572,-0.04400000,-0.00500000,0.00900000
435,0.19198621,0.06981317,-0.22689280,-0.04903325,2.36340260,10.42446899,-0.04400000,-0.00700000,0.01000000
436,0.20943951,0.19198621,-0.17453291,-0.16671305,1.69655036,10.61079597,-0.04300000,-0.00800000,0.00900000
437,0.17453291,0.57595868,-0.10471976,-0.25497291,1.70635709,11.37571430,-0.04400000,-0.00800000,0.00800000
438,0.17453291,1.04719758,-0.06981317,0.02941995,2.24572300,11.20900154,-0.04300000,-0.00700000,0.01000000
439,0.15707963,1.22173047,-0.24434609,0.23535962,2.67721557,9.77723026,-0.04200000,-0.00700000,0.00700000
440,0.03490658,1.04719758,-0.43633232,0.45110592,2.08881640,8.41410541,-0.04200000,-0.00900000,0.00900000
441,0.03490658,0.82030477,-0.26179938,0.24516625,1.27486443,9.44380378,-0.04200000,-0.00800000,0.00900000
442,0.03490658,0.99483766,-0.10471976,-0.27458620,2.41243600,10.00278282,-0.04000000,-0.00900000,0.00700000
443,-0.03490658,1.29154359,-0.47123889,-1.14737808,3.47155427,10.13027000,-0.04000000,-0.00700000,0.00700000
444,-0.24434609,1.62315616,-0.76794486,-1.47099757,2.23591613,10.03220272,-0.03800000,-0.00800000,0.00600000
445,-0.19198621,2.00712871,-0.45378561,-1.61809730,1.43177089,10.48330879,-0.03900000,-0.00800000,0.00600000
446,-0.33161256,2.51327419,-0.43633232,-1.51022410,2.46146917,9.77723026,-0.03500000,-0.00700000,0.00500000
447,-0.34906582,2.58308720,-0.73303833,-0.84337196,2.77528190,7.96299982,-0.03400000,-0.00800000,0.00400000
448,-0.41887903,1.79768905,-0.78539819,-1.02969825,0.79433865,6.64890861,-0.03300000,-0.00900000,0.00400000
449,-0.40142574,1.15191733,-0.33161256,-1.81423034,0.26477956,7.85512685,-0.03200000,-0.00900000,0.00400000
450,-0.26179938,1.06465089,-0.19198621,-2.95180177,1.56906404,9.50264358,-0.03100000,-0.00900000,0.00300000
451,-0.31415927,1.44862327,-0.41887903,-3.40290760,2.04958987,10.19891548,-0.03200000,-0.00800000,0.00300000
452,-0.38397243,1.74532928,-0.43633232,-3.20677447,1.30428445,9.39477062,-0.03200000,-0.00900000,0.00300000
453,-0.33161256,1.79768905,-0.26179938,-2.86354179,1.42196426,8.62004566,-0.03000000,-0.00800000,0.00400000
454,-0.29670596,1.57079639,-0.33161256,-2.49088931,1.76519718,7.68841361,-0.02900000,-0.00700000,0.00200000
455,-0.27925267,0.99483766,-0.34906582,-2.95180177,1.34351098,7.67860698,-0.02800000,-0.00800000,0.00100000
456,-0.31415927,0.97738437,-0.24434609,-3.50097393,1.04931151,8.81617832,-0.02800000,-0.00800000,0.00300000
457,-0.15707963,1.15191733,-0.15707963,-3.99130678,1.66713056,9.12018489,-0.02500000,-0.00800000,0.00200000
458,-0.27925267,1.34390354,-0.45378561,-4.23647308,1.71616373,8.88482475,-0.02600000,-0.00700000,0.00200000
459,-0.31415927,1.44862327,-0.27925267,-3.76575374,0.62762565,8.58081912,-0.02500000,-0.00700000,-0.00100000
460,-0.08726646,1.20427715,0.01745329,-3.86382007,0.76491875,7.53150749,-0.02200000,-0.00600000,0.00100000
461,-0.17453291,0.87266464,-0.06981317,-3.82459335,1.48080406,7.55112028,-0.02100000,-0.00800000,0.00000000
462,-0.10471976,0.61086521,-0.10471976,-4.25608587,1.72597036,8.10029315,-0.02100000,-0.00700000,0.00200000
463,-0.17453291,0.62831854,-0.22689280,-4.79545164,1.57887067,9.22805786,-0.02000000,-0.00800000,0.00200000
464,-0.05235988,0.83775806,-0.13962633,-5.26617097,1.21602463,9.60070991,-0.02200000,-0.00600000,0.00200000
465,0.01745329,1.02974426,-0.13962633,-5.60940408,1.36312437,9.13979816,-0.01900000,-0.00800000,0.00000000
466,-0.15707963,1.09955739,-0.24434609,-5.90360355,0.81395187,8.76714515,-0.01900000,-0.00700000,0.00200000
467,-0.03490658,1.29154359,0.03490658,-6.04089641,0.50994582,9.23786449,-0.01900000,-0.00700000,0.00100000
468,0.00000000,1.53588972,0.08726646,-5.78592348,1.56906404,9.17902469,-0.01800000,-0.00700000,0.00200000
469,0.01745329,1.58824958,-0.10471976,-5.19752407,1.88287687,8.00222682,-0.01700000,-0.00600000,0.00000000
470,0.05235988,1.08210409,-0.15707963,-4.68757867,1.15718472,6.89407491,-0.01500000,-0.00700000,0.00100000
471,0.05235988,0.64577178,0.01745329,-5.02100515,0.91201848,7.29614782,-0.01600000,-0.00700000,0.00100000
472,0.13962633,0.61086521,0.01745329,-5.90360355,2.16726970,8.59062576,-0.01600000,-0.00600000,0.00000000
473,0.08726646,0.92502450,-0.40142574,-6.68813514,2.25552964,9.15941143,-0.01400000,-0.00700000,0.00000000
474,0.13962633,1.20427715,-0.38397243,-7.08040142,0.60801229,8.83579158,-0.01300000,-0.00600000,0.00100000
475,0.17453291,1.46607661,-0.10471976,-6.98233509,0.33342611,8.83579158,-0.01200000,-0.00800000,0.00100000
476,0.20943951,1.85004901,-0.03490658,-6.68813514,1.44157752,8.06106662,-0.01100000,-0.00700000,0.00200000
477,0.20943951,1.90240879,-0.27925267,-6.17818975,2.04958987,6.28606271,-0.01100000,-0.00800000,0.00000000
478,0.08726646,1.60570287,-0.43633232,-5.72708368,1.32389783,5.18771791,-0.00900000,-0.00800000,0.00100000
479,0.10471976,1.09955739,-0.31415927,-5.82515001,0.69627218,4.57970571,-0.00900000,-0.00700000,0.00200000
480,0.19198621,0.59341192,-0.27925267,-6.35470914,1.00027835,5.19752407,-0.00700000,-0.00700000,0.00100000
481,0.27925267,0.34906582,-0.33161256,-7.21769475,0.46091256,5.67805051,-0.00600000,-0.00700000,0.00200000
482,0.22689280,0.41887903,-0.12217305,-7.72764015,-0.37265267,6.55084228,-0.00800000,-0.00800000,0.00000000
483,0.36651916,0.73303833,0.19198621,-7.62957382,0.83356533,6.47238922,-0.00700000,-0.00800000,0.00300000
484,0.24434609,0.76794486,-0.19198621,-7.28634071,2.29475617,5.85457038,-0.00600000,-0.00900000,0.00300000
485,0.15707963,0.62831854,-0.38397243,-7.19808149,1.17679798,5.78592348,-0.00600000,-0.00900000,0.00200000
486,0.20943951,0.64577178,-0.17453291,-7.54131412,0.35303938,6.58026218,-0.00400000,-0.00800000,0.00200000
487,0.12217305,0.87266464,-0.10471976,-7.97280693,0.64723892,6.61948919,-0.00500000,-0.00900000,0.00300000
488,0.12217305,1.06465089,-0.05235988,-8.19835948,0.83356533,6.74697542,-0.00400000,-0.00900000,0.00300000
489,0.08726646,1.43116998,-0.03490658,-7.92377376,1.24544465,6.88426876,-0.00300000,-0.00800000,0.00200000
490,0.12217305,1.64060950,-0.08726646,-7.61976718,1.55925726,5.62901735,-0.00200000,-0.01000000,0.00400000
491,0.08726646,1.62315616,-0.17453291,-7.12943458,1.52003073,4.80525875,0.00000000,-0.01100000,0.00300000
492,0.15707963,1.32645022,-0.13962633,-6.90388154,1.29447782,3.83440017,-0.00100000,-0.01000000,0.00300000
493,0.20943951,0.80285148,-0.22689280,-7.24711465,1.18660461,3.66768717,0.00000000,-0.00800000,0.00300000
494,0.06981317,0.41887903,-0.26179938,-8.18855285,0.56878566,4.87390518,0.00000000,-0.01000000,0.00300000
495,0.12217305,0.57595868,-0.03490658,-9.20844459,0.45110592,6.90388154,0.00000000,-0.01000000,0.00500000
496,0.08726646,1.30899691,-0.10471976,-10.00278282,0.95124511,7.60996055,0.00000000,-0.00800000,0.00600000
497,-0.05235988,2.18166160,-0.05235988,-9.53206443,0.84337196,7.07059478,0.00100000,-0.00800000,0.00800000
498,0.13962633,2.58308720,0.08726646,-8.17874622,1.67693719,4.77583837,0.00200000,-0.01000000,0.00700000
499,0.12217305,2.28638124,-0.22689280,-7.38440799,2.17707633,2.45166254,0.00400000,-0.01100000,0.00900000
